acc_x,acc_y,acc_z,gyro_x,gyro_y,gyro_z,mag_x,mag_y,mag_z
0.0001019832357153078,0.00014967991570029792,0.0003326165396235877,-0.012414367471766314,-0.032682397426247796,-0.0038622517821307323,6.909953038832721,-4.927822113037109,-13.359279995050905
-0.0003355529453682125,0.00020242588240875406,0.0004043913497733695,-0.019462975417585376,-0.05974180766710252,-0.009177968161828025,-10.144804983428031,-10.729402075509658,-5.458658854166667
-0.00019878667125894798,0.0001970286939812875,0.0002440795342374799,-0.012254154721369039,-0.02731217154973198,-0.014483958881857257,-5.246134868421053,-3.9181950887044272,-2.6912744140625
-0.00019121433149201894,0.0001872005371257265,0.0003322180692063239,-0.0032377835270298865,-0.02250205213379437,0.01212072611015646,-8.53356748638731,-2.134940592447917,-2.7104542012117347
-0.0001828959263793172,0.00025732105438911357,0.0003427414043072646,-0.011892893595521203,-0.025388758859171117,-0.013539038516765745,-7.360322097252155,-1.8325830078125,-2.801504097732843
-0.00020951789078254679,0.0001560176631742115,1.975219354191741e-05,0.01699010641601726,-0.04196590505490096,-0.02289128243920379,-5.261184802158273,-1.812289368872549,-2.670466496394231
-0.00019750707375449451,0.0001510317436096016,0.00041329411185841856,-0.02426376390513921,-0.017294236047185815,-0.03069219031342508,-1.1043083582942195,-1.5408485814144737,-1.132571072048611
-0.0001904442187043292,0.0001512185916268011,0.0003799160393310559,-0.03114700003051846,-6.832952325118959e-05,-0.043817339665431713,-5.913636622407512,1.024395541487069,3.032816459037162
-0.00018883732575641159,0.00014935011145480515,0.00043917879050785734,-0.03252975241127574,-0.008802535853379647,-0.033623456401817874,-9.477963096217104,-1.3292885170326576,-1.9452995531486743
-0.00018979647891137206,0.00014362714832696105,0.0004412341186970574,-0.03125910951198792,-0.010535821794099893,-0.03358841266692531,-9.054539535984848,-2.4442661830357144,-4.800713433159722
-0.00019003315306649247,7.067572798691113e-05,0.0004392037035768186,-0.041875050864182334,-0.009514923862547075,-0.03275100202439443,-9.84221041932398,-2.6688521535773027,-5.420458984375
-0.00016891655900411846,0.00015077786985494732,0.00044194414116242056,-0.031389346666530975,-0.00935102389599287,-0.03314777249136291,-9.926370059742647,-3.8335658482142856,-5.528465857872596
-0.00018892600669996208,0.0001583686424183237,0.00044113528855249613,-0.030652572928338135,-0.009468211858247077,-0.03318669916161292,-9.610328530365566,-6.420000524328859,-7.183405095880682
-6.758975534877575e-05,0.00016026212625225937,0.00044022513940417975,-0.03068371426453813,-0.009640797143467461,-0.033086268352367915,-9.721983617665817,-17.258119525331438,-9.866635220722088
-0.00019166886785798072,0.00017754142887656897,0.0004406457716605061,-0.03067982159751313,-0.009515702395952074,-0.033154779292007906,-11.142698476012324,-3.65333251953125,-16.694682000910195
-0.00018808993368761397,0.00016223016810711964,0.0004403621612834634,-0.030662693862603133,-0.009515702395952074,-0.033113517021542915,-23.501762316064926,-5.497604927007299,-10.526119725233844
-0.00018840472509285735,0.00015707697306647378,0.00043551866206853246,-0.030662693862603133,-0.009515702395952074,-0.03308548981896292,-10.022331686580882,-0.7202432321947675,-6.83338623046875
-0.00019043176216985275,0.00015492272533875612,0.00043793313705985966,-0.030662693862603133,-0.009515702395952074,-0.03315322222519791,-9.173863002232142,2.973832194010417,-7.238688151041667
-0.00014932375763006812,0.00012432763908807774,0.0004376840063702617,-0.030662693862603133,-0.009515702395952074,-0.033105731687492916,-9.167585100446429,4.728445870535714,-5.767108269457547
-0.00019475417963441395,0.00015545381334999513,0.0004367373097497821,-0.030662693862603133,-0.009515702395952074,-0.03310884582111291,-9.167585100446429,4.6640283203125,-4.348230194627193
-0.00019565105011696903,0.00016223029267246121,0.0004438082262930146,-0.030654908528553133,-0.009515702395952074,-0.03313453742347791,-9.167585100446429,4.6953125,-2.0115077935376213
-0.00019152928250981566,0.0001577159947507712,0.0004651700431569466,-0.03060663945744314,-0.009515702395952074,-0.03307225475107792,-9.167585100446429,4.644591039540816,-0.09685169566761363
-0.00019514145329139365,0.0001593383587145172,0.00044552553518072,-0.03073859488087211,-0.009515702395952074,-0.03308393275215292,-9.167585100446429,5.211196216184701,5.552036539713542
-0.00019553894130665066,8.124841049428565e-05,0.0006302821812622678,-0.029431966926296894,-0.009515702395952074,-0.03307770448491292,-9.167585100446429,4.447861328125,-0.947037067819149
-0.0001966226598064119,-2.589542722609086e-05,0.0004669004965797326,-0.03061831745851814,-0.009515702395952074,-0.033012307678892926,-9.167585100446429,4.392156862745098,0.5872878086419753
-0.00019530226715153026,0.0001372405633246966,0.00045306436353647445,-0.03059963265679814,-0.009515702395952074,-0.03305279141595292,-9.167585100446429,4.440509406887755,-1.9789089626736112
-0.0001942060921172915,0.00011761415490272994,0.00044832188681617795,-0.03059963265679814,-0.009515702395952074,-0.03299673701079293,-9.167585100446429,3.544155067121479,-3.0975301106770834
-0.000210515072128059,0.00015092779260813288,0.0003987878377965623,-0.030622988658948136,-0.009515702395952074,-0.03298505900971793,-9.167585100446429,4.523934994103773,-2.622364277742347
-0.000192387438083216,0.0001482663929550351,0.0004535162616943372,-0.030644787594288136,-0.009515702395952074,-0.03298505900971793,-9.167585100446429,4.414899553571429,-2.6391551737882653
-0.00019232515541081396,0.00013870335572806552,0.00045712865669353435,-0.030666586529628132,-0.009515702395952074,-0.03298505900971793,-9.167585100446429,3.9585595703125,-2.6391551737882653
-0.0001928732429279344,0.00015064055957777028,0.0004719226466170708,-0.03067592893048813,-0.009515702395952074,-0.03298505900971793,-9.167585100446429,0.8436208471096417,-2.6391551737882653
-0.0001928732429279344,0.000182788817299996,0.0004474181867164245,-0.030623767192353137,-0.009515702395952074,-0.03298505900971793,-9.167585100446429,4.083106994628906,-2.6673559072066326
-0.00019288569946241603,0.00019481244406985843,0.0004407854147854299,-0.030654908528553133,-0.009515702395952074,-0.03298505900971793,-8.137229517886514,5.744967713647959,-2.371464482060185
-0.0001932843085657752,0.0002159301924308913,0.00043262463212238834,-0.03068215719772813,-0.009515702395952074,-0.03298505900971793,-9.220468558517156,6.023537149234694,-2.9647444385593222
-0.00019044421870433438,0.0002989092731484461,0.0002430943592094984,-0.03065880119557813,-0.009498574661042076,-0.03298505900971793,-9.0842529296875,6.006646603954081,-4.838443531709559
-0.00017758776152278777,0.00020753902928396124,0.0004169591357157884,-0.03197172228896213,-0.009511809728927076,-0.03298505900971793,-9.11367486447704,6.066535794005102,-9.971117102581522
-0.00018723575079052324,0.0002016531457701201,0.0004333041911487705,-0.03091447300750863,-0.009528158930432072,-0.03298505900971793,-9.11367486447704,6.084721779336735,-6.13687164614899
3.534615619371517e-05,0.00012495419122101126,0.0004023600980661259,-0.027418295168241718,-0.009269997253334095,-0.03298505900971793,-9.11367486447704,6.253328284438775,-3.6910024789663463
-0.0003750822939507512,0.0001904054361208475,0.0010996606706925145,-0.01426594781758255,-0.013613823867508913,-0.03298505900971793,-9.11367486447704,6.253328284438775,-3.0014797911352042
-0.0017064293779891408,0.00042939151569780715,0.004505664297641395,-0.05599614564120473,-0.006211139505089369,-0.03298428047631293,-9.11367486447704,6.238231425382653,-3.0009815449617347
-0.002999616961564701,0.0006937369914852818,0.007818043663890299,-0.1880848872341074,0.008242250115171015,-0.03298428047631293,-9.11367486447704,7.210796356201172,-2.9862334582270407
-0.004318851402983711,0.0008785800156421785,0.01105162299301872,-0.3804608668626909,0.04166165361022226,-0.032999435407574655,-9.11367486447704,7.4490990732230395,-2.979756257971939
-0.004514787605046054,0.0012287774552809585,0.013100893320370207,-0.6454720808578567,0.0924277972549535,-0.03297044282357246,-9.11367486447704,9.901423273859796,-2.868597536670918
0.00046510582137452737,0.0002609125034333124,0.009968701711465541,-0.9395883860914584,0.13996271136403413,-0.0317779205690991,-9.11367486447704,8.657035079656863,-0.5643081665039062
0.004583373142341384,-0.0005281109727743273,0.00734408498346082,-1.1900367343201814,0.1801405138000511,-0.03297960927588293,-9.11367486447704,8.6327392578125,1.3045730590820312
0.011050070908822478,-0.0019514444285969187,0.003747161191724305,-1.3585813470870085,0.2170377734958322,-0.03301386474570293,-9.11367486447704,8.7191357421875,3.594038899739583
0.019174359718557004,-0.003405744829136777,0.0003245209346229183,-1.464072949410485,0.23502488075982383,-0.03301386474570293,-9.11367486447704,8.73813177614796,5.2546912560096155
0.02727428420631225,-0.004994701986754921,-0.0005375840139351264,-1.516210319579659,0.24330534878494725,-0.03304267048168792,-9.11367486447704,10.132273840525794,8.545657596072635
0.03431212587577218,-0.00633714108831491,-0.0007389333003014509,-1.54959846176367,0.24912880000703477,-0.03304344901509292,-9.11367486447704,11.779788028492646,11.894300672743055
0.04149323080775016,-0.007694106128428066,-0.0009104581928938954,-1.5558096342574625,0.24804197351462898,-0.03277515171442043,-9.11367486447704,14.191114922531513,17.21895183466832
0.048839434647726054,-0.008928361847378755,-0.0006071893546831497,-1.5550458929871578,0.24867064963135435,-0.03300607941165293,-9.11367486447704,18.20135315306886,12.475892196745562
0.05575859111612412,-0.010214598684714466,-0.000668617816705744,-1.5557232170495077,0.2569611120354171,-0.03300607941165293,-9.11367486447704,22.335282759232953,8.753548758370536
0.06329065890707608,-0.011701896445091866,-0.0006809428031307603,-1.5536754966887412,0.2696043848902626,-0.03300607941165293,-9.11367486447704,30.239390177899097,6.504071916852679
0.07111794294148487,-0.013231439809420842,-0.00022023551569736583,-1.5618216399859415,0.2895977504106241,-0.03300607941165293,-9.11367486447704,21.060890810333028,9.067391744474085
0.07895772380288262,-0.014538647955290964,-0.0002046580933875521,-1.5911476368109565,0.2658730298851871,-0.03300607941165293,-9.11367486447704,15.48597043059593,5.714622096011513
0.08691540329013465,-0.015958555864131547,0.00042386242255925197,-1.5621013519699698,0.2541484931018825,-0.03288229260025794,-9.11367486447704,12.146651287468112,4.460410670230263
0.09450294752747124,-0.01733861531917061,0.00035124973296303265,-1.5470532233268233,0.24169367139537482,-0.03282390259488294,-9.11367486447704,9.929649716331845,2.4705835716011597
0.10199642497460419,-0.018782230903042655,0.0001847783847570221,-1.561784098191917,0.24174739020031982,-0.03305979821659793,-9.11367486447704,7.645564488002232,7.009316264719203
0.10935694137269762,-0.020194700766014543,0.0008189921118782516,-1.5790332681841954,0.2417629608684198,-0.03551999201731528,-9.11367486447704,6.29380859375,4.368877704326923
0.11685198834317496,-0.02160064350457118,0.0015113107174770108,-1.6034545920145677,0.24176529646863482,-0.03399106075378573,-9.076535692401961,5.733060709635416,2.5421048677884617
0.12680215597698774,-0.023338790956306785,0.002755092499833004,-1.5206462051620675,0.23640155571518326,-0.03963482423518429,-9.594376749067164,4.196231173485825,1.1954220502804487
0.1355340247125187,-0.025012351276763597,0.004902490032932232,-1.3660374455883004,0.22244501386244614,-0.03382989491459899,-8.729433121219758,3.286049107142857,-0.5706966624540442
0.1421845061887177,-0.026677329044963692,0.007024817532225444,-1.164197210608234,0.18330713827936634,-0.03339787100484284,-6.699071084299395,2.6067160866477272,-2.125658942657767
0.14860489056000217,-0.028060378068277943,0.009218967814183363,-0.8739957697608907,0.12749294181615028,-0.030487375673991412,-2.907963066994147,1.9515704719387754,0.181982421875
0.15068687573298914,-0.028627175165521625,0.010302851767316146,-0.5630639806155642,0.08067567979979856,-0.02471898722078812,2.3300316982581966,1.9624322385204083,-0.4576349431818182
0.13672890532597812,-0.02417175941698432,0.0035352379789770996,-0.2074006762652569,0.0961857780008881,-0.031252710525512636,15.279311769520888,1.1059776628521127,-0.2233089524872449
0.13311165379802847,-0.02294094457943911,-0.00011143740311148185,0.14494330096918065,0.16133656746490213,-0.03919472268626568,-1.3313974876926369,1.957698899872449,1.6847027277542372
0.13126613727225558,-0.02307741569261752,-0.0029961341145240466,0.39117862483596305,0.2532774699283688,-0.0477739142037821,-9.434778941761364,1.956802056760204,0.10487717848557693
0.1288001197488181,-0.024079285913829757,-0.005431627281946416,0.5861975104077093,0.3493002230342498,-0.05880757030701613,-10.466968677662036,2.7622391550164473,0.06662049585459184
0.14020297050977742,-0.029725816728253803,-0.0005567448085834927,0.7142623935379071,0.40255650228145395,-0.07829634310464208,-11.311142578125,0.9402524886592742,0.0763362962372449
0.14122667342641268,-0.032569817941520265,0.001237502545293706,0.758231433691064,0.36317590868861976,-0.05919567066915881,-23.355419921875,-1.41117919921875,-0.09266880580357142
0.13994919353281643,-0.035081715489015466,0.0011501995371957644,0.7982968382824183,0.3228914402761745,-0.04741643862558193,-28.87383124168883,-6.805650190873579,-0.038409797512755105
0.13730942942820742,-0.03733368253151653,0.002615325120058414,0.865197616152273,0.27739951780755023,-0.04344672231208224,-44.2948159271816,-12.370424420646067,-1.8752460186298077
0.13434970107646144,-0.039916818999702855,0.004169720013619616,0.9144688103825167,0.2239201788384654,-0.05099930283041335,-59.830827384159484,-22.41521714154412,2.2938027795339595
0.13061582079531234,-0.042179212161563694,0.004392035790114848,0.9870439584873528,0.16409179718519687,-0.04228453362934767,-75.9239169034091,-33.51411304139254,-0.3664976607921512
0.12587175887560417,-0.04488494584210217,0.0073950787516264774,1.05605822931608,0.08819023993153885,-0.03255126871166108,-92.72623614875637,-45.299380523989896,-2.6432861328125
0.11539883394380729,-0.04720573245320341,0.017670116088673072,1.1170534084624075,0.014280608304321159,-0.02968416570611611,-103.56745126314253,-53.93997923085387,-5.605759926892202
0.10349044980094144,-0.04600554814045734,0.025192101809747597,0.9735535316455146,-0.012217172025439451,-0.025587124437745645,-112.55593985098379,-60.677255192158384,-4.246298030931122
0.0965996812372826,-0.04474817309351179,0.02515050452644983,0.7010551618944647,-0.030769371623889836,-0.022431613106682492,-119.55457106370193,-65.52600628396739,-4.226467833227041
0.09180619503136053,-0.04257408430457967,0.02255909430638308,0.4033291956877968,-0.05282356777736207,-0.013573792898651422,-137.3970735103117,-67.88959827161815,-4.238674864477041
0.09433478431199131,-0.0409618616031048,0.01278117543596313,0.11288874508511858,-0.03494163921957123,0.005435303553858906,-123.94503471795029,-67.26800446012128,-2.4825231040396343
0.09777268987599308,-0.041115324360891506,0.006738406706412522,-0.010878848021324897,-0.014672859399444687,-0.009094443846230446,-119.47255532035615,-70.03886829723011,-4.280024601862981
0.0978651140570602,-0.041120245806440046,0.006743931620453709,-0.008646894503854231,-0.029133096306243018,-0.00848075468882986,-116.81106708233173,-71.92447580384814,-4.3174560546875
0.09785363073724618,-0.04113985778374579,0.006726328068994238,-0.03421984046769742,-0.029974781745945187,-0.009285329869873748,-114.65366643591773,-70.3898388671875,-4.745934864831349
0.09785679776322796,-0.041136781517990606,0.006483318179645762,-0.017353647057252668,-0.03628102397228915,-0.008989880934215147,-113.00365271935097,-70.35525948660714,-3.7740046574519233
0.0979687490462965,-0.04111796647259152,0.0067574694051942205,-0.005339965885255343,-0.030584251431826692,-0.006783291602588827,-111.8682861328125,-70.35660475127551,-4.230902224170919
0.09706089702134497,-0.0412212786736006,0.0072286120970570696,-0.013687016087537748,-0.03257644886623731,-0.022993748900197293,-112.91773457429846,-69.46590971610915,-4.251629264987245
0.086512080658552,-0.042849501849990625,0.014992048371214681,0.031507605890750495,-0.12854333908617616,-1.099137509552605,-112.91868124202806,-70.25102638711735,-5.0617453835227275
0.08418066624680591,-0.04641858088930932,0.01804374523148288,0.1953054902798547,-0.33627862900890193,-4.011035399602512,-112.91868124202806,-70.26428629557292,-4.611689640925481
0.0852438190307876,-0.047022175745507974,0.018083797598753837,0.41583477777231065,-0.48932661843081293,-7.004389682750753,-112.91868124202806,-71.25627855984669,-6.72361463181516
0.08668115599830593,-0.04787552849841887,0.01929402371288185,0.6597321658238784,-0.5835711996826075,-9.852786495621839,-112.91868124202806,-74.11209948955138,-4.932702105978261
0.09667732281669644,-0.04366216259140757,0.012524744723191854,0.8528820634807607,-0.5642371026599059,-11.521884314503414,-112.91868124202806,-71.94207451813412,-7.475658275462963
0.09767779429652652,-0.04044268562883383,0.008236617184793139,0.9471166433494542,-0.36552345783431944,-11.291133968159853,-112.8895338408801,-70.40848514951509,-8.066402374751984
0.09429315958128599,-0.03906658578223606,0.0074688318822508214,1.023077448757618,-0.13085324769881096,-10.894562286720772,-112.95425601881378,-69.8403556577621,-9.43724046311937
0.08996743557660024,-0.038931120944853,0.0059926908169804834,0.9627031115800306,0.08989211395486871,-10.555327254959723,-112.88689313616071,-70.06831951530613,-8.146427699497767
0.08561478560747092,-0.039679360082910654,0.006569020286242189,0.9457771538438063,0.2899977765085953,-10.279035091926112,-113.71730259486607,-70.07096022002551,-7.713171617040095
0.08163577774626188,-0.04147322539355411,0.005533501693777264,0.8874551659002236,0.47756360150798804,-10.059718339070605,-112.94254723373724,-70.07096022002551,-7.879010881696429
0.0769288863695831,-0.04456596106307702,0.005469672739850019,0.8138416432022164,0.6477315405058475,-9.885945790407595,-112.94010582748724,-70.07096022002551,-7.833271882971939
0.06331719132551847,-0.043208545431783915,-0.0059469874805599355,0.6561293284671271,0.7406315008410813,-9.208034713870292,-112.94010582748724,-70.04883808992346,-6.248329037525615
0.05963143162327945,-0.04575813452918013,-0.008040803764432196,0.43689512314218576,0.5802046670897735,-6.987007367417315,-112.94010582748724,-70.27851815059267,-9.43026696630271
0.05681564017556235,-0.050549841397174694,-0.008479643886473202,0.23257896664326919,0.37151411667911294,-4.537263255776874,-112.908798828125,-70.09592235331633,-12.78763374660326
0.05526047460642016,-0.05470513311484702,-0.007488476270661994,0.09431449510863027,0.13636355143271942,-2.123851741080966,-111.00020658052884,-70.1005560427296,-11.140416762408089
0.0646492929416236,-0.06306544476367767,0.0035119068898960626,0.009086665504777394,-0.006345318815008201,-0.27162734657753596,-110.53245155484069,-70.1005560427296,-10.952348188920455
0.06575757933745954,-0.0648775208025736,0.004995374265920836,-0.0316026865247901,-0.0417527249507595,-0.007191468768665327,-109.37283214890813,-70.1005560427296,-9.19242431640625
0.06542177625250256,-0.0646878313391987,0.004682187973672706,-0.01530162228997943,-0.03659773787417449,-0.004950102237006738,-110.64363938934949,-70.1005560427296,-10.973227364676339
0.0655818764897236,-0.06497748359078571,0.004897758633468319,-0.011908501918178035,-0.02798233330437984,-0.008967303465470157,-110.65121273118622,-70.1005560427296,-11.76953767475329
0.06558207579427529,-0.06478449634805544,0.004863278251336324,-0.012733848078859779,-0.04659385690148344,-0.009202420553780134,-111.05217805455942,-70.1005560427296,-13.695793600643382
0.06559257665284193,-0.06477121916750193,0.004855917134150003,0.006417661061433738,-0.042776985057764005,-0.009169722150770132,-110.51922731983419,-70.09397919323979,-15.32959579839939
0.0656533956363052,-0.06483603991821034,0.0048690712345608855,-0.011330510175575292,-0.04376027274827892,-0.00941863626653199,-110.52585399394133,-70.1219580078125,-14.06892239317602
0.06556777268432167,-0.06483561796556138,0.0048933332881207015,-0.010173251709815024,-0.04376027274827892,-0.016118034596992046,-110.52585399394133,-69.94932673527644,-14.12427754304847
0.06483183612151087,-0.0654165620038296,0.005224010483570406,-0.007431811939395747,-0.04367307700691893,-0.002357854898546498,-110.54399015465562,-68.48707950925365,-14.119145607461734
0.05466780976131406,-0.07303607516708882,0.006464084033003736,-0.0326440054555059,-0.04490551412950468,0.004090140525998213,-110.56073122608419,-70.032958984375,-14.106490154655612
0.05263646920501346,-0.07281235224933148,0.0063706815530557865,-0.022514727602926006,-0.03797666096987819,0.007058452520080829,-109.72670658299181,-70.03703125,-14.106490154655612
0.05328067666259921,-0.07206831098830667,0.004900478292862393,-0.05215072098204301,-0.05379262199247976,0.007138972968923776,-107.42260233561198,-69.91681640625,-13.621739783653846
0.05579928211075398,-0.0698664545929459,0.002061381623788157,-0.09295208403271585,-0.07771756001655618,0.006141708742648651,-105.106181640625,-70.19162645526961,-14.28472567471591
0.07502313243178062,-0.05770200650223768,0.004065164503403369,-0.05089419232764666,-0.04929348312031943,0.013200617781827483,-103.74279947916666,-71.21298615828805,-16.267592921401516
0.07863150453477301,-0.055783716875132186,0.004869984106899287,-0.050365230262153934,-0.05346842860194702,0.026918284912191844,-102.30009696852993,-70.25569661458333,-19.2579345703125
0.07905096072843647,-0.05670139074642884,0.006102251700841727,-0.05361126402971088,-0.056858602279595966,0.010769650271150271,-99.86591679216868,-70.63474647671569,-18.037353515625
0.07827989961205582,-0.057512373186540997,0.007347169026764695,-0.011095461897640883,-0.029399338511307035,0.0032252887268985333,-95.81029909048507,-72.64297618036684,-16.864345816678778
0.0690317635400972,-0.06280668517292472,0.005533007353375383,-0.02261698313164184,-0.006770017619271717,-0.0006676529473856174,-84.85721204603041,-76.99565314117973,-17.858661358173077
0.06669446176248743,-0.0641010656772856,0.004889592451614986,-0.028761151972004295,-0.023182493444986196,-0.005997856979919294,-95.18368510584678,-73.87667043585526,-18.840410340507077
0.06644284698395601,-0.06421596626687415,0.00457560880410812,-0.017497892644302494,-0.03587047298994527,-0.004725853475030524,-100.10899727299528,-72.8660291306516,-18.4923095703125
0.0668491459368352,-0.06404053366700231,0.004832161761663982,-0.019457262564439155,-0.033808685889044295,-0.004240908975700501,-100.77071908804086,-73.74537568933823,-18.604656608737244
0.0667176842555009,-0.0640997310340419,0.0051656682432762455,-0.02016518143253879,-0.036645308334049984,-0.004740645609725525,-100.61731675091912,-75.94671914743823,-18.6560400390625
0.06620503213599042,-0.06440956566347959,0.003385061999286241,0.009430578469371075,-0.02935007220036843,-0.004318515814456822,-99.08201047207447,-78.82778406989645,-18.62543347417092
0.06377684319270976,-0.06664987053109246,-0.012737059026299385,-0.013897011386242908,-0.04437842827184887,-0.010394991181870069,-102.90044543207908,-83.30525605799788,-18.613575215242346
0.06542839497609841,-0.0652569188982348,-0.014177172154911866,-0.03312497021016278,-0.044452192754905806,-0.012875134070018243,-103.87242406728316,-94.6041568109321,-18.17690344024123
0.06701994602583604,-0.06397681465237234,-0.014591843902479315,-0.05272482251226105,-0.04241281596547561,-0.018640959908851333,-103.96165995695154,-81.14939644410438,-18.6496435546875
0.06817903901573441,-0.06270671468245487,-0.012177425571572035,-0.08321367534409613,-0.051987957603065856,-0.033145378791640076,-104.60101143973215,-77.09257671261622,-20.878579711914064
0.07241846291065851,-0.05914162495803701,0.005890972624896994,-0.05440405085136186,-0.06947241671716747,-0.018232902005066026,-103.19676231971154,-73.63714021381578,-19.495286510836692
0.06874294024710595,-0.06282175123083113,0.02231343245885525,-0.04303572015465837,-0.05044709616382332,-0.012871619137006539,-103.65882593271684,-71.63201784620098,-19.84606029369213
0.06744547257911916,-0.06442832907570202,0.024543168431653776,-0.0441190400374053,-0.0510281588958306,-0.008843773570098787,-103.65947365274235,-71.30682373046875,-20.987444196428573
0.06600177739799185,-0.06563036977845427,0.02404173017209446,-0.04391488948251191,-0.04870785253705349,-0.0043837265012073015,-103.36493252840908,-71.42992665816327,-23.678610605736303
0.06500158127260111,-0.06607962682196936,0.021403138523514498,-0.02994892311277693,-0.04099506966646907,0.008342543383514462,-104.58379657451923,-71.42992665816327,-29.680302102767413
0.06746752335161403,-0.06373895162352675,0.005969261300904207,-0.03298322591742795,-0.044252425634608884,-0.004157145527512412,-106.085537109375,-71.4463189572704,-22.91507795215708
0.06801178878197171,-0.06338704184087646,0.0048900038684272645,-0.027877405780934453,-0.04341849658348397,-0.011366008484145587,-106.54765724649235,-71.33085661114387,-19.61138160342262
0.06778981450397811,-0.06348149301530967,0.005037047602023676,-0.002437096569218455,-0.04333908617617398,-0.011119342631305842,-106.59115413743622,-71.41634114583333,-17.076809123411017
0.06780484471995527,-0.06348243971193014,0.005056828578777911,-0.012905125427959758,-0.03266839314234557,-0.011299011013444916,-106.59932537468113,-71.84682083129883,-14.565585246128318
0.06779864136578423,-0.06348662510751543,0.005203657538845235,-0.014231366815044694,-0.018526490424423583,-0.011296675413229916,-106.70691157322304,-70.4596698467548,-11.899309430803571
0.06787249163284195,-0.06348382907959164,0.005113443527989509,-0.012546130454535724,-0.041152986408898445,-0.011277212078104918,-108.34004516601563,-69.1866357421875,-11.832355205829327
0.06783827805849958,-0.06357531825718961,0.004996994880520047,-0.004128066890960144,-0.04251773343389904,-0.011277212078104918,-106.59448902027027,-68.93334524972099,-11.981791548295455
0.06763870114408847,-0.06352937293505546,0.0035604163925420907,0.014109469893490354,-0.042703024384289016,-0.011233614207424924,-107.95324492872807,-69.15548270089286,-9.680821572580646
0.06566103553926664,-0.0653014177543124,-0.012671218924786268,-0.006347458708065393,-0.04369254034204392,-0.010718354848882464,-111.86500379774306,-69.15548270089286,-9.141609981142242
0.06692902949412396,-0.06434405820191166,-0.014161426792141801,-0.026941883220923432,-0.043383053071687924,-0.01449102062218914,-117.28456887637867,-69.15548270089286,-7.607033865792411
0.06826706934490459,-0.06323987361600113,-0.01431825900623005,-0.046368543072220714,-0.04349090019014895,-0.019937096656814625,-123.66331298828125,-69.15548270089286,-10.7457275390625
0.06927890118418041,-0.062124959868159996,-0.01247325591206353,-0.061550481486424446,-0.04380313027775869,-0.02784504565908107,-115.2677490234375,-69.15548270089286,-9.36727220184949
0.07263889236753121,-0.05922558713215492,0.005134036119829747,-0.08800441922048707,-0.05818628998487578,-0.042317489776299275,-110.09211282169117,-68.94681658063617,-9.3853173828125
0.0703902109078135,-0.061416062576646585,0.022985132224073206,-0.06201926104258181,-0.07744250080608665,-0.02771105431937973,-109.64844248246173,-69.81405334472656,-9.362787986288266
0.06902864345225374,-0.06267186810024765,0.02433439469927397,-0.048930548773664484,-0.052896206549272066,-0.0203149460147579,-109.49159458705357,-67.24168007046569,-7.98646240234375
0.06822000613960597,-0.06353565402722869,0.02449618575147306,-0.03341522466709389,-0.04334391308328496,-0.018941094916924212,-100.513515625,-63.176516723632815,-6.356644694010416
0.06710218939786979,-0.06447719388778984,0.02252520355319636,-0.012788018433179683,-0.04130503751271407,-0.018941094916924212,-93.02373529790522,-60.05531924532861,-4.653902094414893
0.06896818071103519,-0.0627381796894527,0.006097191686758005,-0.012580476998074791,-0.027478600553844563,-0.018941094916924212,-83.86394471612596,-58.387331102715166,-3.1609080481150795
0.06922755498268518,-0.062415355006561424,0.0054552822314130655,-0.012630303135994786,-0.03603740712601836,-0.018941094916924212,-79.73093309589461,-56.4505615234375,-3.4704349705430326
0.06910124545438763,-0.06249410089668359,0.004957089248213934,0.00029350804311595975,-0.03340881773641863,-0.018941094916924212,-79.36146240234375,-54.678076171875,-0.35251796392746915
0.06910821205217825,-0.06250881206390446,0.004810016465462477,-0.01168827771594487,-0.03392038904248482,-0.018941094916924212,-79.7972802734375,-54.70151068239796,4.250529795040486
0.06910227998178851,-0.06253532306999364,0.004896498569519656,-0.01102451234713063,-0.03418309579760119,-0.018026139103366146,-79.81804547991071,-53.73784930889423,0.8927970096982759
0.0690501371425519,-0.06253030671102021,0.004899760124515502,-0.01146784346821726,-0.032083936730207464,-0.009738802592175463,-80.20236493956368,-54.98101337139423,-0.7924891880580357
0.06956123428618488,-0.06214271097525905,0.005027246566218845,-0.009934468436925121,-0.03341898861659591,-3.6583085077014625e-05,-76.55904715401786,-55.96424181707974,-1.4109784294577206
0.0795124923470166,-0.056545320920811895,0.004347270619630807,-0.01928185655537575,-0.038749882238360116,-0.014788073696426561,-77.39580474028716,-54.16107855902778,0.32119261188271603
0.08563023069645584,-0.052574464228881276,0.004508631651763463,0.0011499279000213717,-0.01757329687643049,-0.024052680781776463,-69.62861851283482,-51.4244023712588,-1.6267129866803278
0.08491693955780402,-0.05200023804437388,0.004837173745876863,0.024294913436427725,-0.021632606477198245,-0.04036790756775796,-55.809395032051285,-43.934791324013155,-2.6949359939759034
0.0788121486089476,-0.05472351538350863,0.005489366842656712,0.05355330820642717,-0.0037828024218427236,-0.02616940231804542,-36.96778288341704,-35.515112982855904,-5.323896059782609
0.058652580402258854,-0.06737469967692264,0.005929458160818958,0.08753531959206427,0.019697117257499,-0.050766938174318564,-33.09036201343202,-29.372582220262096,-2.586064877717391
0.051944537325524245,-0.07262427193574382,0.006443303680755534,0.05079310645766305,-0.004482171321521856,-0.026342840726003708,-18.778250558035715,-25.61777998761433,-1.4584269205729166
0.05229390570278828,-0.07355776286160688,0.005095000729053257,0.019266080711284706,-0.002954979695185116,-0.011070780053102173,-10.021570749661553,-24.656220105229593,-1.8998575015943877
0.05432841212195191,-0.07187684847186347,0.0040046476298986515,-0.007991931565954161,-0.016408371990111945,-0.013098959550612972,-4.116224351820055,-24.653479751275512,-1.858303770727041
0.06618158397974028,-0.06389770765302487,0.005225183736857743,0.00977304708197084,-0.02825854001419596,-0.003040218892758432,-2.4886568509615383,-24.285132998511905,-1.858303770727041
0.06779609762166906,-0.06330918212189807,0.004889200945110039,-0.0006399985758028885,-0.024118352540431084,-0.0016314686524043318,-2.61546875,-20.923393698299634,-1.858303770727041
0.0677377539636519,-0.06321228001406226,0.005054533055067107,0.0017567576905204072,-0.025459218793976245,-0.005058057610930887,-2.6391651387117347,-15.638116651965726,-1.858303770727041
0.06789273189695168,-0.06328655659657577,0.005134252992236388,0.00037406367517455125,-0.03686093067368428,0.0020905926993741034,-2.6391651387117347,-2.680432368259804,-1.858303770727041
0.06772220425021104,-0.06326926011395138,0.005045304727317101,-0.013366508748340097,-0.020952330088198433,0.0018603574734742982,-2.6391651387117347,-12.71622672623503,-1.9107080078125
0.06751951445761152,-0.06345204883604005,0.006366165597953654,-0.03226015935601356,-0.02209106244505915,0.003033788972603681,-1.634818699048913,-19.110183253432766,-1.7687659630408654
0.06550179296243167,-0.0656194617789113,0.01957367796509759,-0.0038506305463152095,-0.01829837581819455,0.00291467336163869,-2.6867333984375,-22.15056895380435,-2.5163609095982142
0.0666065011899104,-0.06456025147251802,0.022131672972865578,0.011906950996158877,-0.006430421078421405,0.0036745219649186177,-2.6157861328125,-25.20925241750437,-0.8454736916415663
0.06732716153571627,-0.06405586382018241,0.022364971477650163,0.023366768343305238,0.007372202245563864,0.007623042896064339,-2.73177734375,-27.006397480867346,1.8541070642605635
0.06829579411341545,-0.06254296423508127,0.02057186071352274,0.041360770969357606,0.016913475330480193,0.012346302134808805,-5.0687255859375,-27.0877610809949,5.424177839949325
0.07141600652224141,-0.05925051897036771,0.00745246928997129,0.024144629011613163,0.020066653598484377,0.020150799584948212,-2.493542241115196,-27.05731823979592,11.243907099184783
0.07167077828781583,-0.05925213831985012,0.0037324747459334066,0.07219257456920346,0.04115921167299075,0.03371863325548118,-2.642949030949519,-27.051239636479593,6.696078282705745
0.0678531070894497,-0.06281583156655095,-0.011655573736240165,0.034929960020752535,0.01808704574260994,0.019355589751121498,-2.5278569435586733,-27.051239636479593,2.6158089986661586
0.06641545532059066,-0.06434307413568774,-0.012928295183442465,0.020533616138187785,0.014050806536386507,0.01199144294903743,-2.5278569435586733,-27.051239636479593,3.390735102634804
0.06507191686758011,-0.06570605568195474,-0.01272908719138149,0.00022459213618323547,-0.0010562698890513285,0.009043778801843276,-2.5278569435586733,-26.91987666377315,3.2902732382015305
0.0638693469910929,-0.0667612578384722,-0.010905157017731162,-0.02880266547609398,-0.019163525803399705,0.007497253334147116,-2.5278569435586733,-28.233050236936474,3.502457682291667
0.06616663298922372,-0.06443698565613903,0.004040198217719082,-0.009255316000669509,-0.013455820268718412,0.007205302708400283,-2.5278569435586733,-33.5692630890877,5.63392017505787
0.06682227072443571,-0.06389564540248496,0.005043224773517431,-0.0013444929349650284,-0.015125035578976554,0.006223440332888386,-2.6674476036658654,-28.143851412259615,2.1774190266927085
0.06678689672224977,-0.06405144107242808,0.004920847614767991,-0.0023910317934357464,-0.01580027161473428,0.00019388790551468345,-1.7890663752480158,-27.21301739032452,0.49620794480846775
0.0667415424802081,-0.063915042697886,0.004957738774226919,-0.0023910317934357464,-0.03364284188360235,-0.014175206222751056,1.5652321385973282,-27.36996771364796,-1.2347486846301021
0.0668313024730855,-0.06393345345584746,0.004893112346107286,-0.0023910317934357464,-0.01403909017989216,-0.006090622533995426,13.881333539275085,-27.37225964604592,-1.2605322265625
0.06672442720183258,-0.06393271034882651,0.0048830972923853645,-0.0023910317934357464,-0.016059003178284716,-0.0051802492773270386,2.811510009765625,-27.343859614158163,-1.1285759420955883
0.06670812875459944,-0.06381045763439193,0.004802045703877277,-0.0023910317934357464,-0.019893840952375397,-0.00792813653981137,-0.87640380859375,-27.343859614158163,-2.6594976380813953
0.06643904305280733,-0.06376695727069571,0.0050936839118851255,-0.004503796284589411,-0.009672628397652545,0.04551416058839686,-2.9671240234375,-27.343859614158163,-1.0491021603954083
0.06559749726805797,-0.06312676412244021,0.005791984430864964,-0.00038769810186172957,-0.002430758038534124,3.4050527129397867,-2.9934181680484695,-27.343859614158163,-1.1178103077168366
0.06437565702829531,-0.06130047839320668,0.005002752317428621,0.02133706214030928,0.009210867641224373,10.725014527433338,-2.990179567920918,-27.343859614158163,-1.1950882892219388
0.06318838118456094,-0.05877182680683584,0.004607929929502226,0.0051395077364421215,0.015663571258785324,12.377366819404545,-3.00692063934949,-27.343859614158163,-0.7760320925245098
0.06121714417753546,-0.05647609995870655,0.0043291631719465295,-0.0017340969220909213,0.04908802188527336,12.333654504314005,-3.00692063934949,-27.215792142427883,1.925553506879664
0.060173831126691474,-0.05472733940118804,0.003923740134356402,-0.013840638560249707,0.008893274569995753,8.97541329224338,-3.00692063934949,-27.55768048321759,-0.47876412527901785
0.05912175577344796,-0.0539957576308866,0.0043493148594622765,-0.013949651640190328,-0.009678575018984255,1.6555324452239464,-3.00692063934949,-26.767459992439516,-2.612148597592213
0.05848035612867492,-0.05383817291069382,0.004565778666500367,-0.03470228601413743,-0.0044152936163190095,0.006027585142153393,-3.00692063934949,-27.294938712284484,-3.5264540850105934
0.05840203115447578,-0.053919318451256006,0.00467466596456853,-0.0174508349234445,-0.008363609827747573,-0.012823550697783874,-3.00692063934949,-27.402254065688776,-4.528043859145221
0.058426133061946904,-0.05393705125554869,0.004649387792471634,-0.01511927443177956,-0.017056659737548496,-0.004803282294485162,-3.015839245854592,-28.013165902400363,-5.02168037522007
0.058426755888670925,-0.05393466796795926,0.004645065375007071,-0.014781390934009589,-0.010976853890455942,-0.005121348444770506,-4.288701171875,-27.36393893494898,-6.8120643028846155
0.05843114352855,-0.05393965058175126,0.004642947764145471,-0.014268395031586611,-0.01342314544805902,-0.005723915999498116,-3.0476513671875,-27.36393893494898,-8.2958984375
0.05843937553580786,-0.05393890318968247,0.004643483395128112,-0.0018713360791934024,-0.012616600948066783,-0.0037136089214579115,-3.070148078762755,-27.36393893494898,-6.901949368990385
0.05807712511765364,-0.05373309015587676,0.0046436204170073915,-0.010801390626748408,-0.012700682555806777,0.011506475792953011,-3.1733492337740383,-27.36393893494898,-6.89656907684949
0.05165390141774042,-0.04559833157177169,0.0046373285974866734,-0.03406395680307537,-0.024542916528874706,1.2021068048179382,-2.971636603860294,-27.36393893494898,-5.202937397203947
0.049168675801873785,-0.035886317331461484,0.004676353600615623,-0.05369670354495281,-0.04079045358692969,4.450670566392395,-1.1595069398271276,-27.36393893494898,-7.353085472470238
0.050947501120968276,-0.03446640005530697,0.004733487578966625,-0.11855552205599508,-0.01666894059482365,8.06752811906952,-2.8915268255739797,-27.36393893494898,-9.544211647727273
0.05298611532384182,-0.0318118034497013,0.004944723131722219,-0.07339320047608869,-0.0008354441969054203,11.771784610325344,-3.141583806818182,-27.36393893494898,-11.017186873998398
0.06044778830058537,-0.038931494665800474,0.004848934395377446,-0.03607116542713764,0.024641268793159386,14.212620742745782,-2.924560546875,-27.36393893494898,-9.636447975852272
0.05782937786461359,-0.05851229365175188,0.005017206923951188,0.0305914487136448,0.06706947466019092,12.770489597859468,-2.927799147002551,-27.36393893494898,-8.78921035981514
0.05504861847690209,-0.05807351348388709,0.005253639040211854,0.06053117465742969,0.031981626767348635,9.273344012735558,-2.8192608173076925,-27.36393893494898,-9.25820611447704
0.05234728195303508,-0.05725379877589631,0.004835679368949031,0.10406735435041345,0.0057313734304160644,5.555470972226287,-2.9389598612882653,-27.36393893494898,-11.237388392857143
0.050210694703003975,-0.051730297343706266,0.004890332909986815,0.045796544835211755,-0.003455376589960818,1.8958462440122998,-3.9525818556882024,-27.188485775353772,-14.085426732113486
0.051422043481717285,-0.03896025680391479,0.004762968186633747,0.009521244199824561,-0.016442169358814658,0.11011560909650885,-5.588529698988971,-25.631046070772058,-17.09154575892857
0.05176727736315468,-0.03709816620198057,0.00450536688263669,-0.009581748830665749,-0.02461005435367012,0.009757011865977916,-8.296400035511363,-22.50081081016391,-15.830904776589913
0.05177347275668141,-0.037186285580243596,0.004792651697800156,-0.01721263751660183,-0.015254676961577148,-0.008410217176027565,-6.4351055438701925,-25.75657927684295,-14.57953523334704
0.0518900167001919,-0.037027251783308575,0.004953819817300576,-0.010475702778440961,-0.015405514694662264,-0.009601618337662094,-5.552953475560898,-24.89100820806962,-17.368937174479168
0.051772291227963035,-0.03700925728120767,0.0048577048186621485,-0.012057655013220021,-0.015505767998290912,-0.006268802629756446,-10.390699510450487,-24.98410322081368,-18.284131427143894
0.051662707655493925,-0.03703000264821902,0.004859910570243607,-0.0060922574541458895,-0.015223130788006552,-0.012534540795483644,-16.122527407903743,-19.971879241195712,-18.69115942651099
0.05072690863932045,-0.037029967307825214,0.004747800787554469,0.009250727553440618,-0.015272178392521546,-0.011536531994373845,-10.904805314650229,-29.511117029671716,-21.630358130530972
0.03733063068056893,-0.03691844804938019,0.005410497380802864,-0.027219474172309962,-0.012912255940762278,-0.016389313816746475,-5.894843207465278,-46.46212425843917,-28.487291273179945
0.03408821776723367,-0.037443842890713154,0.0036712855413474775,-0.016350568892760674,-0.016106518603532995,-0.027072464956038114,-2.968505859375,-67.13155635710686,-35.32480230564025
0.03627044545654189,-0.03808382094020393,0.0030023163548692266,-0.01670715647530789,-0.013858773054190646,-0.01620492555847792,-2.8670131138392856,-83.1786750344669,-43.799171956380206
0.05167958679183817,-0.03712887966551709,0.005204810847408553,-0.06602487001824546,-0.006106527683113826,-0.004344485892232081,-2.8670131138392856,-85.17270208864795,-53.356953196281935
0.06754800343551215,-0.03684807022251445,0.005063434132465184,-0.020547802822121732,-0.015480084765160048,-0.007836548125058488,-2.8670131138392856,-85.2337870695153,-47.35492830194978
0.06918253743344313,-0.03630575395977655,0.006428446362522782,-0.029848448672355008,-0.012582053980855625,-0.007153996398815836,-2.8670131138392856,-85.18670280612245,-43.75421785053454
0.06725417105859313,-0.03610710102573758,0.0069990394428458115,-0.006294491487292128,-0.019657022817672194,-0.0073245979809202786,-2.8670131138392856,-85.2005540497449,-40.9046826171875
0.05461809573220438,-0.036881287028884865,0.005175524576345172,0.024004612560959055,-0.02787595533834121,-0.007268543575760283,-2.8497412109375,-92.51412227235991,-40.65673329878827
0.05192919446069568,-0.036891649820098606,0.004400514613411711,-0.005857195570931934,-0.018660748032142977,-0.007256865574685287,-0.8983537946428571,-102.05643342670642,-40.65673329878827
0.05226626465277714,-0.0372622571489608,0.0047507715266043365,-0.0024881954940759263,-0.017824790302626178,-0.007256865574685287,5.3667334440712615,-90.58683910704495,-40.65673329878827
0.05226425915072586,-0.03707040620136108,0.004801580389275299,-0.007025641153400322,-0.0178615804975513,-0.007256865574685287,13.368393406723484,-82.30803571428571,-39.4517822265625
0.05225330985691794,-0.0370882031875409,0.004754478591265588,-0.006490788704165371,-0.018079355754264906,-0.007256865574685287,26.511574258609695,-78.79146165114183,-36.26410348074777
0.05248426092647409,-0.03720538768491482,0.005150150322268009,-0.0062486648152103915,-0.012101594730840546,-0.007256865574685287,59.56349064753606,-63.64445022056843,-32.471492544686285
0.052279141503025255,-0.036971836881755316,0.005024125779343981,-0.006096850801235409,-0.01767189550462349,-0.007256865574685287,97.11079750722543,-51.865548270089285,-25.66944599454365
0.051797201049606334,-0.03706975621065049,0.004998527235800738,-0.006220637612630394,-0.017852238096691293,-0.007256865574685287,117.92411255285685,-48.642445709745765,-19.733428955078125
0.04287304113209963,-0.037500016408487276,0.004326736796636391,-0.0006931455912137618,-0.017852238096691293,-0.007284114243860284,129.16757244731104,-46.99921104029605,-16.763517137984156
0.051296885611971065,-0.0371119425863604,0.0027526454461297314,-0.001973652549117169,-0.017800854891961294,-0.006675858175224605,123.81586891766553,-48.5445166015625,-15.155702889683734
0.05262548619411138,-0.037314392373889956,0.004037616112679774,-0.025319593612286872,-0.017803190492176296,-0.008916061812268318,141.52143636408212,-48.62865823412698,-13.837953920717593
0.05329526657918022,-0.03710645484427478,0.004923904025952623,-0.09542408413685352,-0.018779433671834413,-0.006138696452731869,127.86076720686984,-51.20090491749416,-9.248960141782407
0.0625187025522816,-0.03677087332832438,0.006049512801443888,-0.11321236700429177,-0.017835110361781294,0.0022449858856155606,122.19840107266864,-48.2002294921875,-13.517320715862772
0.05470168041823024,-0.03690862820545555,0.006890559572656654,-0.09042915070443051,-0.017835110361781294,-0.0018094816249174218,119.41163394325658,-47.987965303308826,-15.9169091796875
0.05359041467473547,-0.03688973164264939,0.005484941412665686,-0.09651544647405573,-0.017835110361781294,0.00978235755793965,119.14450633769133,-48.12220435049019,-16.04402004942602
0.05299398785363317,-0.03690831679209355,0.0046722985427169305,-0.049052483011669444,-0.017835110361781294,-0.002666377332270606,119.18476462850765,-42.909485533997255,-15.804905007102272
0.05271482733398681,-0.03687423078096861,0.004110585345011722,-0.01204644947969021,-0.0177868412906713,-0.010320931901295655,119.18476462850765,-41.47980110012755,-15.991355428890307
0.05309282713298944,-0.03690101726288827,0.004561496292599476,0.012017195405757753,-0.017858466363931295,-0.007873165074617718,119.18476462850765,-40.64622145432692,-16.378227095170455
0.05317795841136829,-0.03690859083585211,0.004582757789538106,0.02135115455336158,-0.0177829486236463,-0.008158091264704946,119.18476462850765,-40.798486328125,-17.952159208409928
0.053218616539911,-0.036902948025732664,0.004693711355937359,-0.0070232245857112,-0.017839781562211297,-0.008413459380761452,118.91681657757675,-39.912380642361114,-21.028823852539062
0.053250762824016376,-0.037054752553577555,0.0050004893732754855,0.0009695076492464124,-0.017770012512588824,-0.006669989793254014,119.19492885044643,-41.22467041015625,-18.23231973453444
0.053451164246057704,-0.03693665744637755,0.0034103609209355902,-0.015526193036938937,-0.018190939054536517,-0.008498626355660175,119.19492885044643,-40.78341619318182,-16.302470703125
0.050472271512037065,-0.0367618565747845,-0.011912080058373499,-0.03918499128315068,-0.015033110721896668,-0.008544974572532747,119.19492885044643,-38.309578045460974,-16.131989655671298
0.05220082446041253,-0.03685664708707052,-0.014349115878780403,-0.037770356415195626,-0.022522328270356762,-0.011035962542050946,119.19492885044643,-35.22586484248584,-14.206467507102273
0.05414348931198196,-0.03689663624988551,-0.014466420484023483,-0.08586159510460069,-0.030452282935726608,-0.014677010129370676,119.19492885044643,-38.60841557017544,-16.21232760682398
0.05555490186430718,-0.03717754436334864,-0.012623226394215419,-0.08182245950536339,-0.03589087805105436,-0.018301833569004004,119.19492885044643,-40.90652244678442,-16.169578085140305
0.06015316189268786,-0.03783863616428014,0.003983709099961286,-0.08247175636513333,-0.044547324851107094,-0.0267046783950223,119.19492885044643,-41.61960018382353,-16.189009685905614
0.0565302360575566,-0.03715490135293365,0.02159627722056563,-0.1145876546927909,-0.033897586664089485,-0.016855889132112115,119.19492885044643,-41.54228117028061,-16.189009685905614
0.05529568138177839,-0.03669121477348422,0.02397866191030043,-0.0536657392430731,-0.026512093697730853,-0.011534787928086255,119.26051719515931,-41.55045240752551,-16.189009685905614
0.053845395491624884,-0.03653881579177768,0.02410128781881721,-0.05656359614364171,-0.024185668608010694,-0.0071486399725732295,119.1906439333546,-41.381099076704544,-15.910160609654017
0.05243782425916313,-0.03648416089358191,0.022867300258986374,-0.026028191190549617,-0.01957098605304111,-0.0020315790276802747,119.1906439333546,-41.8020169005102,-16.817840576171875
0.054855185048519765,-0.03694838694026895,0.0073168933029310644,0.010346676395597538,-0.01909559948956493,0.0015608611359631494,119.1906439333546,-42.0733528137207,-18.57991015625
0.055499271239040894,-0.03679698500602148,0.005174694672657945,-0.012329168519085144,-0.02105149555463447,-0.004499078227982269,119.1906439333546,-43.41822684151786,-16.51198226686508
0.055590259712515584,-0.03682926367255529,0.004895368677466495,-0.031027260921679987,-0.020572210536256224,-0.00376786213145962,119.18436603156887,-43.09073153409091,-16.231161312181122
0.055654106542890935,-0.03676436907964268,0.005404246930865587,-0.013448057496871803,-0.019220282101094256,-0.005759745836870427,119.18431620695154,-46.30426281840862,-15.37004245057398
0.05555766472365483,-0.036754885504725235,0.005066656784482623,-0.012362123830025941,-0.01399374049308268,-0.00571848356640543,120.318408203125,-42.968625860699156,-15.5049560546875
0.05551152073732712,-0.0367754429387954,0.0048373693543092905,-0.013763847773674688,-0.021183735190294817,-0.005606374756085441,124.86340876988002,-42.480827487244895,-13.847547743055555
0.05514518526915141,-0.036806451612903184,0.004710269260449305,-0.00906842249824514,-0.021502781232735965,-0.00561260302332544,119.81704372829861,-42.46084781568877,-11.449700549640486
0.055409484400233876,-0.036812687976890586,0.004936333060604425,-0.009662007507553283,-0.02172620319223604,-0.005585354354150443,119.51011937978316,-42.65595612702546,-8.0389404296875
0.057256003582499264,-0.036533623536614296,0.00427912018294267,-0.0007120165154359516,-0.021392025513473866,-0.005579126086910445,119.56303312340562,-42.09242350260417,-11.666192823840726
0.07140490223006524,-0.035380337489502145,0.004000672478033352,-0.01644805827939771,-0.021766029847102207,-0.00530556657612838,115.77621668985445,-39.762943892045456,-14.47708088077911
0.07465505050813313,-0.035510834070863924,0.00533573584209807,0.02096909658360853,-0.029184671091252123,-0.008084646607398107,101.2854969113372,-35.711555325255105,-15.481562861689815
0.07425540452284303,-0.036118883376961626,0.006508918118839063,0.04799342162628773,-0.02350721364681589,-0.005491271706289821,81.16882854959239,-30.635299246651787,-16.1192041015625
0.06317843798794576,-0.036825853353743214,0.006331293991030037,0.07254881335529993,-0.02269783000941086,-0.005235014321900476,67.75402592677696,-31.76514092807112,-16.275644339767158
0.0399271779534287,-0.038243476668599466,0.006618940440948851,0.05296347183546406,-0.022171541427630906,-0.005346344598815465,66.56655521716101,-31.229183274872447,-16.039081648284313
0.03547003997924735,-0.03704289524177054,0.00548197647257677,0.055132465901793846,-0.022230709966410897,-0.0056562008940054375,57.08311529579402,-31.084293287627553,-16.165694891237745
0.036097293008209415,-0.03647185256454528,0.0036645185979453728,0.03814291657363872,-0.017575841813277076,-0.0056562008940054375,46.63038394325658,-27.277182334710744,-17.767939141456118
0.04783715697039638,-0.03630576155549448,0.0048024210204615685,0.010346440790942862,-0.007161589885844659,-0.00561960982397044,60.343994140625,-25.194660055226294,-22.80698458002417
0.05408654862439372,-0.03656266853846855,0.005043241336981982,0.01838102081639782,-0.014769730830254242,-0.005989257484664406,68.21816705197705,-16.57467045268946,-18.41689654478093
0.054335896252326966,-0.03658753386706812,0.004889521865381715,0.016444539789853087,-0.01977152535870143,-0.005772202371350425,68.50351263552295,-23.318668365478516,-16.385711185515873
0.0542362473032201,-0.03653134533501972,0.004946403393658237,0.006885254279736509,-0.018099612414929602,-0.003160932504114454,68.50351263552295,-28.079427083333332,-15.852544044961734
0.054311889478428944,-0.03655001703431085,0.005187494028212218,-0.023708164134683737,-0.016578347949849706,0.007608806591014233,75.9053470672123,-30.27942537006579,-15.85976861447704
0.05417951238110841,-0.03676363220025424,0.0049252825762875615,-0.0022661204337891035,-0.01678701949696772,-0.003987806180668059,90.14333274147727,-33.44880477241848,-15.867341956313776
0.0516407224042606,-0.035699123620516596,0.0033925359199742247,0.2926606721670571,0.002823299896491388,-0.018082834756885647,98.38582021182346,-36.18060980902778,-15.58289265182783
0.03905104002720502,-0.031739991018838586,-0.003356568498794434,3.19165125689547,0.1696878953003364,-0.08901270413268801,110.72339863679846,-38.21195392219388,-15.760995540978774
0.019019848864867107,-0.032805757161105925,-0.0069501539632939105,6.991001710905011,0.30725319089701375,-0.04127508310642253,111.32886738679846,-39.0413818359375,-13.90292646300118
-0.01674283671414056,-0.03538625284398249,-0.011173799249244587,10.570898390179766,0.34800785758195,0.019250639798752186,111.3219915896046,-38.12177136479592,-15.159772600446429
-0.06057126539082682,-0.04288020363942563,-0.009034582937237913,11.406687477383603,0.38549969666451195,0.06851156246671762,111.3219915896046,-38.12177136479592,-11.989314060585171
-0.09983179567795618,-0.04837731648950967,-0.012851509140293503,8.61073423174012,0.2339254650802855,0.11266468775076784,111.3219915896046,-38.12177136479592,-15.104801432291667
-0.1317341887650778,-0.04909170438401498,-0.017335722911864332,4.817896988196811,0.07614322336497083,0.07838103044190174,111.3219915896046,-38.12177136479592,-16.203712864925986
-0.14789961901689286,-0.04849886053850841,-0.01995033704268161,1.1759480824099406,0.0011425628273684855,0.015335735599447491,111.3219915896046,-38.12177136479592,-15.612738161670919
-0.15343916364024773,-0.04421788297459549,-0.029433748331520862,-0.0034357165746024807,-0.01231459468195625,-0.011691240890038795,111.3219915896046,-38.12177136479592,-15.614282724808673
-0.15341357874367129,-0.043857685650632784,-0.03003235021263689,-0.0008767044185983102,-0.006159194718263239,-0.004606794020573443,111.3219915896046,-38.12177136479592,-14.757136932791095
-0.15342290096983036,-0.04393136341668828,-0.02973566420761456,-0.011475572658031313,-0.008056288099516626,-0.005824927049024435,111.3219915896046,-38.12177136479592,-15.7462158203125
-0.15337430576259878,-0.04386725943162074,-0.029698559339504625,-0.01795060579241307,-0.007484016650438071,-0.005983382671590289,111.3219915896046,-38.12177136479592,-15.625692562181122
-0.1534177668589332,-0.04388160374168889,-0.029669759744372574,-0.0002695188848904049,-0.01247523343687162,-0.007784865674257216,111.59283820950255,-38.236797257965684,-15.64607083067602
-0.15364223224585702,-0.043757047128675335,-0.029859854842871236,-0.006109424115726161,-0.023538734067415065,-0.001318593948928149,115.8478042722687,-38.108617665816325,-15.649060307716837
-0.15923155265096847,-0.03851740104373298,-0.028617757929443394,-0.26518965385159143,-0.07802352790232576,0.6501048217376492,113.2279541015625,-38.08724290497449,-15.649060307716837
-0.16112632856725562,-0.02424327238143399,-0.02517693697554089,-2.0914694226333985,-0.3636839420993448,5.497484247155084,113.11816904496173,-38.1527685546875,-15.649060307716837
-0.14455317102884124,-0.011026577884793198,-0.021061746418590543,-4.907762632015911,-0.22046399968111272,13.28805315576958,113.0601318359375,-39.97786342075893,-15.653644172512756
-0.1131568993941764,0.0043570553499881065,-0.014721195976788398,-7.580748861939868,0.6346926630389087,21.083581322173938,113.09240971779337,-42.13936554439484,-15.954581124441964
-0.06473471256235269,0.010762136389566372,-0.008566936246833617,-9.582128578840212,2.1103357783434427,27.96777541242028,113.40725473257211,-45.41178096248414,-14.792047119140625
-0.011979582494333809,-0.00420296303585673,-0.007276906643879427,-9.302194436538008,3.3824764898482353,28.130404033924123,116.55685712706368,-51.783016967773435,-17.816935221354168
0.024029306488671034,-0.011346225309179383,-0.004234500489853131,-6.771756116002723,3.42874005890695,21.173435755112006,120.8794111328125,-45.460869140625,-20.36223392210145
0.046080935087130286,-0.017115232286340796,-0.002205719886758294,-4.043373341645994,2.7112210953902736,13.36582708586227,135.81205711173052,-42.637617079592545,-17.53287908380682
0.05576006098719277,-0.01910588546463229,-0.0007311465804009541,-1.6473114438805097,1.3734873874474254,5.721691746860798,122.90105656215123,-39.43381666100544,-17.09740323153409
0.05938556026066537,-0.008632245109720224,0.003615570169838598,-0.2218845117318755,0.1850639300490849,0.7243823583084772,116.55007156671262,-40.299521891276044,-16.563793285472972
0.06017994046116237,-0.004895224305393031,0.00522397927891653,0.003931285788794861,-0.026625571586250327,-0.01081187558436006,111.20096039012739,-38.580537109375,-17.739775390625
0.06021808174734896,-0.004869967955565,0.0052475256651322135,-0.017223009557379862,-0.01699814952191575,-0.0026993137210733834,108.77624371408046,-38.52221181441327,-16.062060546875
0.060196244787169256,-0.004963774529251942,0.005348784947161332,-0.0036379589220861953,-0.01772222301805631,-0.003614498565929229,105.85648018973214,-38.497041015625,-15.9303271484375
0.06021754985626849,-0.004792981647072601,0.0051859961459482014,0.005105614584091381,-0.017763485288521307,-0.0042366744959119245,105.53319408275463,-38.569694674744895,-16.040781449298468
0.06008572516622634,-0.004897905240545299,0.005024716862572026,0.005817890069935239,-0.01819464166781853,-0.0038004520329814996,105.86983318718113,-38.55918168048469,-16.040781449298468
0.06032683056559512,-0.0048671748094464146,0.005274121611900461,0.03570731273517383,-0.014739430273284207,-0.005434059749775524,105.86983318718113,-38.56376554528061,-16.084333831188726
0.07053251435771302,-0.008947931063046841,0.0042854065215905315,-0.0027252864293849013,-0.006260001493165452,0.0018309961241492704,105.87900091677295,-38.557637117346935,-15.909846714564733
0.0770616120834148,-0.013951607034281622,0.005064625804925662,0.01510249132765684,-0.03178577902194645,0.024071201862500977,105.9573750398597,-38.98932698567708,-16.450491768973215
0.07566647504364454,-0.015697847607318884,0.00583800894850569,0.03572832422864464,-0.04137470625934626,0.047062211981566765,106.82448567708333,-38.5320458984375,-15.119275544819079
0.07102230529346655,-0.013594417728638088,0.00604620258186589,0.05964206874802892,-0.05714493795032138,0.06670904849869873,101.0783054517663,-35.280833524816174,-12.481998697916667
0.05071219986758698,0.00016851322145061654,0.00659259040608127,0.09123011687317524,-0.08090557251920649,0.07799963955165827,86.88902640964675,-31.273387518454726,-7.974583585497359
0.04248027305346401,0.005248725276408397,0.006022649340598647,0.06297619145434778,-0.058788033692434405,0.04658806178191965,56.15994083180147,-27.65084191524621,-3.6219656808035716
0.04377770940524402,0.0072799726171177215,0.005226001609449769,0.0356817557575942,-0.05590668144075531,0.03727462080751971,19.372157505580358,-22.268474968112244,0.03476081095950704
0.04784830556875596,0.005705288359430761,0.003740511743968217,0.016384141887117794,-0.039052936474026995,0.012110618275467893,2.9652589812992125,-22.210379464285715,5.165646472609187
0.05855785487744467,-0.0032534091926753115,0.005013520638728928,0.009888803016776138,-0.017825988545386064,0.0016806443107744646,-5.629433818247127,-21.819854113520407,2.9129092829014227
0.05893667742212919,-0.003628231429769518,0.004899955315436106,0.0004549307662559868,-0.013601947080904524,0.0020302594135587844,-9.466085143008474,-19.4455692251933,0.8891782407407407
0.058980031128879624,-0.0036803262428662573,0.005122223040038465,-0.002828913235877524,-0.013164322554486374,0.0019742050083987896,-9.20888970822704,-16.16404239430147,0.6768225845025511
0.05903788166926221,-0.0035842894588583307,0.005271517753295127,-0.0072183779462243434,-0.016088859934366474,0.0024348550290487687,-8.758003234863281,-8.931102934337797,0.6832499601403061
0.05890750316629532,-0.0036305640524823967,0.005123907016952701,-0.0037262165830106225,-0.0159099093600268,0.001908029668973794,-12.256155545594263,-15.692539499766792,0.6798120615433674
0.058949645057766724,-0.0036235151219213913,0.005079145203320183,-0.0031936094241156922,-0.0170698516858021,0.0019236003370737941,-17.061892947635137,-18.547164481026787,1.2320650540865385
0.05899987842626548,-0.0036248162157406817,0.005180066038410486,-0.003997924741355597,-0.0037294670942064016,0.002108711625908771,-29.426159014917694,-19.90919623940678,0.8634157764668368
0.05883081309693447,-0.0033932599613190266,0.00573793023468732,-0.019238514140969314,-0.011852671532189,0.001982482375560744,-17.051765773607336,-20.200734264445753,0.5044998468137255
0.057764655560472375,-0.00026973388990050905,0.01845858767579824,0.004783507711511529,-0.024887665658284194,-0.0037600711081270367,-12.529827675122894,-21.334519909274192,-0.7949541877297794
0.05795638183649287,-0.001029386833318439,0.02089612130791806,0.029712294274082826,-0.024941878181953127,-0.005869682807450272,-7.2386117788461535,-23.891925048828124,-2.3341142370345747
0.058232955695036406,-0.0022999923415815324,0.021355741831494864,0.06940470056854181,-0.037504619017650336,-0.0035061898844465744,-9.057343982514881,-21.137486611643144,-7.515436422413793
0.05867129213868206,-0.004086145840044535,0.020265236365855886,0.10715914127291339,-0.04798171321375157,-0.01322288985315045,-10.570324265813253,-19.999638671875,-4.069536567914604
0.059696286469618776,-0.008793064160079708,0.007634308793188716,0.15939075439665112,-0.07174806207464822,-0.002240741246408013,-13.895082642431973,-19.83775951244213,-1.2790164432010136
0.058850623412533595,-0.007686361278115132,0.0037335795159764472,0.10390976786511924,-0.046574700385972716,0.0020079907630644283,-9.803169338182471,-20.045848612882654,-0.1347412109375
0.05683017070192049,-0.0028997322130108736,-0.009559691795178954,0.06466584483489232,-0.04397133773398265,0.00921070599657671,-6.976059422348484,-20.073700573979593,-0.08952985491071429
0.05571953933697145,-0.000981229871018767,-0.011420758690145494,0.041700213907007296,-0.048941007721182844,0.0012545761178067408,-7.1236767578125,-20.11846697771991,-0.10153758769132654
0.055265357349946975,0.00022771416986850962,-0.01146163231673471,0.01942690400819003,-0.021268918448245158,0.0029656249382897363,-7.132747727997449,-18.742724125928216,0.47517053404850745
0.055016496271655384,0.0009911969060214998,-0.010195129245887549,0.007978779807919603,-0.029442105704273767,-0.0030263210406341933,-8.351000739532767,-16.555465494791665,-0.6591687558302238
0.05611631147441601,-0.0025581033182338893,0.0031321926748573083,0.0014345139006052502,-0.017142348501032495,-0.014036812365160967,-6.970417604608051,-11.109276840367269,1.1299949852195945
0.056454602845197,-0.0025481240061752137,0.005157190568753185,0.0035981322672200573,-0.011059468160659728,-0.0057022661167074485,-6.246979277012712,-3.787139892578125,6.8502282430959305
0.05615493313020874,-0.0024756700338754954,0.004883037812433223,-0.014310353894815744,-0.0007720851174498129,-0.0057209273695682525,-6.695636360012755,16.058800648834747,10.356080473139045
0.05616121122358664,-0.0023164012917495946,0.004749986266670745,0.0028145844964774947,-0.011719328787402276,-0.0006723866876612051,-6.726178850446429,32.23248166454081,19.701613206129807
0.05594835170901934,-0.0024892767463466094,0.004923083183283978,0.003564256721701698,-0.006813382316374846,-0.0036757849191089683,-6.692347935267857,32.301538584183675,28.159981863839285
0.057334155879826786,-0.0009577617600584755,0.005384660771116654,0.0035009090156036616,-0.01491960773085276,-0.3932965471109248,-6.692347935267857,32.314044563137756,28.23491808832908
0.06596163885641536,0.012149771492660243,0.006063215076786167,0.007541331772265293,-0.0433114871669667,-6.590328248368352,-6.692347935267857,32.34705078125,28.245181959502553
0.06664300271130309,0.007316366702935907,0.005002403658673646,0.019701393339504807,-0.08033037103967836,-15.766739558154267,-6.692347935267857,35.25068439421106,31.81770299692623
0.06000558426440733,-0.011749829189770883,0.004047824372829038,0.058265159433779884,-0.14417104500195152,-21.302789807927606,-6.692347935267857,46.70197414459392,38.99661777769665
0.05699647168660849,-0.019177100156142615,0.003781461836603875,0.02022535040143353,-0.10049745170445869,-20.72155192226126,-6.692347935267857,37.058911369842235,31.893819387335526
0.04708600482192444,-0.03734121873487693,0.003279252392892063,0.013103582243265438,-0.07377820874775641,-13.745859915058896,-6.692347935267857,29.862816946847097,26.103042051016565
0.04495010417468984,-0.039278468174281,0.00387736019588186,-0.00349660239667064,-0.03185162790815958,-4.650866071701059,-6.692347935267857,26.29242650082237,22.4976056300172
0.050106278584543744,-0.025270224646149798,0.004781366142467846,-0.027453024716011958,-0.014257635580155135,-0.08956575275149271,-6.692347935267857,23.075573228809933,19.60886116914971
0.05043359665329323,-0.023919547105319326,0.0045608138523514415,-0.00930535764171736,-0.005751739918355686,-0.0030480914210700414,-6.784414253982843,20.135005326704544,17.84732421875
0.05069298379467143,-0.023532405163731757,0.004635229863065781,-0.004586413735402184,-0.011704159797406863,-0.005355006561479497,-6.749347297512755,18.69379601111779,17.166180046237244
0.05050028427426412,-0.023522450100679895,0.004719658145742284,-0.006178264162669169,-0.012014119897050831,-0.0047918547893414645,-6.035626311800373,18.070224609375,16.39635326244213
0.05045624394831825,-0.023953362949003534,0.0047558052826963924,-0.005728604500670436,-0.01115696759370266,-0.006506045525986477,-4.4942626953125,16.9911865234375,15.267171223958334
0.05057121178477502,-0.023530026051709393,0.004719320178402468,-0.005680335429560435,-0.015095666551174992,-0.0049022599853869855,-6.360023498535156,16.665328045280614,13.555888273278061
0.04973728202154603,-0.02419163699957932,0.004856137000515469,0.0017384330361070028,-0.013405471220181783,0.000783297056271741,-7.407059151785714,15.772969148596939,12.769705636160714
0.032810067122035984,-0.0285040300003176,0.0050723342530774014,-0.013813536929134826,-0.0012179779277511026,0.9746964186840548,-6.6443170041454085,14.850067761479592,12.749128069196429
0.030646408518464504,-0.02931262102301776,0.004419314314131523,-0.0848215272304031,0.0468669237972195,6.116436210398341,-6.659214564732143,14.267468510841837,10.6787158203125
0.03226755523716357,-0.02906125902614833,0.004185991786161157,-0.10754318369090848,0.07528305917538984,11.610237371721054,-6.659214564732143,13.938825334821429,10.614043566645408
0.037090773033844976,-0.026817340492518865,0.00328317776159812,-0.13082918203351868,0.0875627420071089,16.923594731633308,-6.659214564732143,13.3393212890625,10.485695352359693
0.07369218909268467,-0.015604080262434218,0.004578564730017229,-0.20798143350257725,0.14038817903273387,20.003595111557612,-6.145631510416667,12.611248405612244,7.901845703125
0.07715770044161409,-0.008567147260527753,0.004723700674459047,-0.10134744870912353,0.08051312635002013,15.229930343059191,-6.617860132334184,12.221071827168368,6.360720076650943
0.07788387156810601,-0.0038986374419758595,0.005371407164242182,-0.045127089688591714,0.045931719194834485,9.73739118438598,-6.768330476721939,12.02849872295673,3.426223342483108
0.07627059471184654,-0.0008164670696306409,0.006273190107521718,-0.014562298777327677,0.008613475298258573,4.424266605961822,-7.5028119255514705,10.642063685825892,-0.32705644248188404
0.05846680996930294,-0.0030486696981718866,0.0047598155156102105,0.0010810689747848456,-0.0032103019588523023,0.3667840591236951,-9.547522578679079,8.403979920504385,-3.6183740234375
0.0574916425245646,-0.0037103690157310716,0.005117571467809489,0.009880411291287224,-0.015268351601400035,0.0038127328770353364,-7.346785635318396,6.781237150493421,-6.718196946747449
0.05772466644656345,-0.0038212198786799064,0.005135353251747169,-0.003306939621144339,-0.015867479094820943,-0.0019011157459981908,-7.001659159757653,5.175978327371988,-6.78864895567602
0.05781130674871954,-0.0035447848418310806,0.005171158291878994,-0.004261520886927689,-0.013563417462691057,-0.0032458782405374803,-6.922687141262755,2.8946070177801726,-8.122705078125
0.057530360334274395,-0.003687149672943253,0.004999981834220521,-0.0038383253933306125,-0.013898845466101655,-0.00874957116232371,-6.923135562818878,1.24951171875,-11.83625079633852
0.05795093437503176,-0.003519540429395379,0.005741740843599422,-0.004829866814222793,-0.008332573327816298,0.0029087700023397263,-5.2047072784810124,-0.5541321997549019,-9.028386701617325
0.06549710292149327,-0.004408565528326214,0.021463940512573925,-0.017693177846326024,-0.012778876504671455,0.01435422095597749,-4.428617436835107,-0.7281469228316326,-8.0010009765625
0.06632779344133749,-0.005679261676288253,0.022175859658883097,0.019497250940538557,-0.02592491429385249,0.028063209015513135,-3.32814453125,-0.7171855070153061,-7.972232740752551
0.06650410582947124,-0.0071784180574905885,0.021437889045223146,0.04648207419049649,-0.038146908345674316,0.040922507000495746,-2.575729591259058,-0.7171855070153061,-7.97761379942602
0.06590563476748644,-0.008657215503163394,0.019848735007782198,0.07959023376125894,-0.04814341581842853,0.05686158859429871,-3.37435546875,-0.7171855070153061,-7.97761379942602
0.0580188417540544,-0.009854510098402802,0.0034544370391411373,0.11710760826441229,-0.06421825566372669,0.056034786118188774,-3.4548439492984695,-0.7171855070153061,-7.97761379942602
0.055733091655803486,-0.008636516228910972,0.001119728807829644,0.11359409635004847,-0.09055142322606531,0.0693683476381366,-3.9992710658482142,-0.6991988201530612,-8.034749348958334
0.04701741189960278,0.0022498332381446083,-0.01053263643175087,0.13701417518420572,-0.11145952565411643,0.06293164616840106,-3.461250737028302,-0.708366549744898,-7.405941233915441
0.045501122719064646,0.004709125644703465,-0.011105797108253752,0.10047344468730626,-0.0825810751948329,0.05228428217639918,-2.025149783572635,-1.6604715983072917,-7.995949258609694
0.045512418853463146,0.006613366987470001,-0.01037494249521586,0.06746629785510364,-0.06554454521950577,0.04124479315332196,0.18720354352678573,-3.338442674323694,-7.995949258609694
0.045938556067588274,0.008119507481287352,-0.008632081247901772,0.02876577598859159,-0.03566586692521317,0.022871397544277212,-2.2694261338975696,-1.9388351440429688,-7.995949258609694
0.053830727876139364,-0.00048790344173927556,0.0035542341940590994,-0.010882192013742027,-0.004050605501760608,0.0083757950170804,-3.258651455965909,-1.1445873363597974,-7.9855857382015305
0.054758692135910815,-0.001403872379970954,0.005037377714028001,0.0033987982132215704,-0.012650318522079682,-0.0029870933078936864,-3.3292236328125,-1.5885682397959184,-8.371742362406716
0.054420082761676376,-0.0010421729178746442,0.00475739047801456,-0.0043660542619098075,-0.0020695599720736606,-0.0011990483012260524,-3.816134982638889,-1.5692362882653061,-10.346481805098684
0.05449227392262458,-0.0009546426036422821,0.004567573218231477,-0.01242108864388566,-0.005818447255607414,-0.001428952909939866,-5.6381902521306815,-2.5599183427526597,-14.883832295735678
0.05421407741626614,-0.001224146429658027,0.004791449332860935,-0.006827614812019811,-0.007862262882080794,0.0004933156433060776,-3.594111328125,-4.130570198725728,-10.490581673635564
0.052680419511168156,5.355754264963701e-05,0.005715652943510218,0.008448922187973657,-0.022974497425545675,-0.008013472263318963,-3.577113560267857,-8.184102376302084,-8.656003736413043
0.04231428603553312,0.008752021592621303,0.0064616887985700375,-0.05037547229759185,0.016835709761479075,-0.017440485933939678,-3.5979900749362246,-3.893314422123016,-6.47796630859375
0.040179661244544765,0.008560938265661846,0.005063015839106403,-0.0033849414044617924,0.010347145661030897,-0.04575408057903783,-3.5979900749362246,-2.2891070118266574,-6.286964883609694
0.040101784112063915,0.0067060020333704375,0.005098979438436808,-0.06222028723712067,0.046186889917227934,-0.07910251334557691,-3.5979900749362246,-0.9275944010416667,-6.226308785232843
0.042184336584452156,0.0012794941152216898,0.004117830834771646,-0.12856362287573564,0.0721505797289044,-0.07197296778142998,-3.5979900749362246,0.26011884973404253,-6.3797344132965685
0.06417552838103999,-0.012014512077436994,0.0023026689571522506,-0.06537194045476713,0.012320455491176023,-0.06288463725977074,-3.5979900749362246,1.3578879616477273,-5.738014622738487
0.0695622043519394,-0.011736518448438923,0.005435383732108509,-0.023027032859715097,-0.002604852372033383,-0.03616676141198276,-3.5979900749362246,-0.24131476742097702,-6.33439791932398
0.07065478253301362,-0.009811013915150752,0.007040722182378608,-0.006634616668446896,-0.01720467347374749,-0.020207703889075355,-3.5979900749362246,-1.6127223495609504,-6.325828085140306
0.06916659489165357,-0.003719873715653395,0.00490780702157829,0.01181224044594582,-0.026930092267626927,-0.008695523081736994,-3.5979900749362246,-0.033170259915865384,-6.327372648278061
0.057098328426045425,-0.0023898034753315504,0.005358473186714997,-0.0042744224372081386,-0.012251214541306761,-0.0037516403698843086,-3.5979900749362246,0.14622528698979592,-7.2939300537109375
0.05528833588551845,-0.0020604515618313926,0.004636612837828982,-0.0025436243408157445,-0.00891588884623432,-0.003418143706009521,-3.5979900749362246,0.1356624681122449,-6.397615872896635
0.05536053210716741,-0.0020328678363034556,0.004449521174274722,-0.0027390362254707235,-0.011113252943011917,-0.004324908771455565,-3.5979900749362246,0.10791015625,-4.414903428819445
0.05589092933843963,-0.002329433881649176,0.004978809981587158,0.0017120659415229538,-0.010881249988321939,-0.004818708085669603,-3.5979900749362246,0.32868980293843286,-2.857539585658482
0.05594075100666195,-0.002453492422464524,0.005110665377171928,-0.003320600679005661,-0.010852444252336942,-0.004309272227452065,-3.5979900749362246,0.13623046875,-0.933419892282197
0.05558105631343181,-0.002209945546259469,0.0048130111547574,-0.003539368565810639,-0.01077127903073208,0.0016541109989330754,-3.5979900749362246,0.12349759615384616,0.67966796875
0.05573836481826219,-0.0024401759812253195,0.004949939471622845,-0.0037059747144806247,-0.01210994609740236,-0.002553492533801451,-3.5979900749362246,0.14826809630102042,-0.7693369339923469
0.05281157436270807,-0.005946404514746307,0.004604958448115087,-0.0029507973116307,-0.0011243400372325605,-0.4717945132702576,-3.6144321986607144,-0.4324583490210843,-0.8805454799107143
0.0462411012074741,-0.01611950674614761,0.004918417920468741,-0.009920395342963847,-0.01017970959513521,-4.450255140967486,-3.608951490752551,0.1542283442982456,-0.8377099609375
0.04565242411975688,-0.02067950769284423,0.004890222430107922,-0.03403950134054169,-0.021306676911311353,-11.323163610974953,-3.4594776387117347,0.8075467623197116,-1.0549994574652777
0.04640245462719288,-0.025257072353157668,0.004815327977900049,-0.00973034002881364,-0.04814210814621772,-18.448707727971712,-3.0928182796556123,1.2766244070870536,-0.835205078125
0.04951411792476621,-0.027668987136220458,0.005294526883029787,-0.002722177210155384,-0.11014105458186188,-25.140808042935184,-2.946864865860849,1.0198003029336735,-0.6788284866898148
0.05485470137638472,-0.014821859723228204,0.005027105035094149,0.0214604532649051,-0.06013177035731815,-26.83598079247774,-1.1367642106681035,1.0458585778061225,1.287931896391369
0.0522070712009282,-0.01088655398070353,0.0048764354774719024,0.06744586961039487,-0.034667706252303504,-20.93722358171456,-2.5676171875,1.046157525510204,-0.7786661783854166
0.05067548286903928,-0.014040697989453005,0.00468111320424926,0.017538499947440292,-0.02165831773873504,-13.81327857233167,-2.6964453125,0.8819623674665179,-1.7024025430484695
0.04940688802758868,-0.017162873894127847,0.004786859782182017,0.005488684569009256,-0.010912941361537332,-6.672869917033252,-2.6718999123086733,1.033203125,-1.704495176977041
0.0507823799828473,-0.028355548109316016,0.004700371951026882,0.003088656835185341,-0.0005382263236457887,-1.3017002235325112,-2.6718999123086733,1.0150669642857142,-2.3761744005926726
0.052796799971948895,-0.037390208552396074,0.004487771951335565,0.005243266775993487,-0.007430954294414427,-0.009953355935058123,-2.672149035395408,1.0273238201530612,-4.787369266633065
0.05296432855757782,-0.03700917142246768,0.0046960111307507765,0.005181890316476915,-0.006424146244697351,0.002545185638785554,-2.662732182716837,1.0286690848214286,-2.4815705128205128
0.052923331170165976,-0.03702671981877758,0.004745256452583923,0.005039291023883507,-0.006642914131502331,-0.0007363353373821006,-2.825373722956731,1.0192024075255102,-1.9967304304534315
0.052922699106804146,-0.037420544397133326,0.004713316751609827,0.005027613022808509,-0.006628900530212331,-0.0005409405804620386,-1.9491586538461538,1.0924976490162037,-1.3566939742476851
0.05285414214531918,-0.036848549954638356,0.004723072603534022,0.0005913548105387756,-0.006628900530212331,-0.003619596433195885,-0.14850649626358695,1.947741190592448,-1.581528021364796
0.053839238457307974,-0.03722861999845453,0.004941761547805466,-0.01252217400525684,-0.006628900530212331,-9.643001258041106e-05,1.546899688377809,5.103570102660124,-1.5867097815688775
0.06600192805171624,-0.035414425454672015,0.007145072082371797,0.0017650637340462677,-0.006628900530212331,0.00026610271782896326,5.60818088644802,2.12908935546875,-1.5867097815688775
0.06789877801627421,-0.03616814172795797,0.0067432319101534965,0.057332091718822246,-0.006628900530212331,8.986820699061153e-05,1.0879740654667722,0.8605018028846154,-1.5867097815688775
0.06757079333430534,-0.03691832367517335,0.004759488799448379,0.10774030367785409,-0.006628900530212331,0.0010731264868074374,-0.5449972713694853,-0.06534616570723684,-1.5867097815688775
0.0657590416346134,-0.03740988452633773,0.0033878198281103336,0.11350378647506858,-0.006628900530212331,-0.0017552323566434754,0.07575740370639535,0.38285771122685186,-1.5867097815688775
0.041802626211164366,-0.03853860513859278,0.0008857163202815856,0.18868572234573086,-0.0058287578689201714,0.007947316575280628,-1.7267188597261236,0.6513875325520834,-1.5867097815688775
0.03614998733239641,-0.038107896010358806,0.003510586107974472,0.1005850398266548,-0.008193476648782238,0.017155460637940687,-0.3277180989583333,0.37367466517857145,-1.5867097815688775
0.034943896080115396,-0.037323892311821094,0.0061006336112082605,0.011308783426680945,0.0059290470086774075,0.00901508798668477,1.2701159565388656,0.38707748724489793,-1.5867097815688775
0.036497398297067114,-0.0369289788734479,0.006631895081101361,0.0596953076137062,-0.00353384436356298,0.0017726167587308072,-0.6894356863839286,0.38707748724489793,-1.5954290896045917
0.048808294930875525,-0.03711493881038843,0.006291908322397521,-0.017561655662231394,-0.007136521234911537,0.0005559903944487347,-0.5502752130681818,0.3984375,-1.47951171875
0.050048142948698346,-0.03708593451724384,0.005039822295079089,0.007495072767806484,-0.014390415783204184,-0.004089758433281421,-1.2608479817708333,-0.5531363809915414,-0.13440171727594338
0.05068215198443778,-0.037075643416948016,0.004842533074434621,-0.0038013151130006184,-0.0029117479957073,-0.0010267607020638852,-3.612144013755342,0.279912109375,-1.1948002833946079
0.05008734272846681,-0.037109615272571866,0.004268893500574765,-0.013257892726454678,-0.008008724478896391,0.0018420926079545958,-1.2239622552710843,0.28877351721938777,-1.2217942841198979
0.04983533196754796,-0.03709475374365569,0.004452220879806729,-0.008480720087345172,-0.0010617007965330807,0.00025676031696898283,-0.39454789595170453,0.2693419164540816,-1.3239836516203705
0.05005404641180177,-0.037092897720018156,0.004491102608834288,-0.008839623987050139,-0.004862198030248154,0.00031167027802363087,0.6269139703714622,0.2693419164540816,-0.8352669270833334
0.05015396643518835,-0.037266326661405835,0.004716992519228195,0.0019948750703015572,-0.011415244211756109,-0.0020006209853232248,2.888344319661458,0.2518408203125,1.2482152094035388
0.04958195654619747,-0.03577980459434355,0.007129047828732591,-0.3705228879478668,-0.03692677363923256,-0.01184475806451608,13.553968079696746,0.2673489317602041,4.055182707225177
0.05549745232728543,-0.03305183730403072,0.012905977454918232,-3.8316239334870885,-0.2524266886233847,-0.06060101955000263,3.8527747112771737,0.2655552455357143,1.2356108566810344
0.08406860685495542,-0.03251003903255075,0.00971808869426244,-8.78150740260703,-0.36624350391726873,-0.03423179042704781,1.3373198173415493,1.04069091796875,0.05446134868421053
0.12739299432044307,-0.0326171901421477,0.004140765792635034,-10.229430836026538,-0.3530731516215606,-0.0030798262479527186,-0.9589810758023649,0.5035888671875,-0.3826870388454861
0.17347362671378552,-0.03247130990828286,9.831818099721777e-05,-9.936749766284269,-0.33514113115159905,0.0318281208849463,-0.3765414925508721,0.47899169921875,-0.5664023122479839
0.21305544839475749,-0.03376841773735764,-0.00690553582286109,-6.722117604633334,-0.1750006162391336,0.06352008655221218,-1.4962548828125,-0.014869326636904762,-1.7121227633568548
0.22989239796385483,-0.03143929073264621,-0.004763554422287647,-1.6512593867772636,-0.002324707824906181,0.008571886349070646,-1.4281396484375,-1.3978782476380813,-3.532242838541667
0.23177844325083155,-0.030611323892941012,-0.0008673101448148652,-0.010549413099997528,-0.012009432041428588,-0.002271937852988221,-1.5067392025353774,-3.7099761962890625,-5.608609827553353
0.23224909954826367,-0.030276156905829996,-0.00023888020737632213,0.004658497878963573,-0.008302795260710179,0.0006874294259468273,-2.3186838657041138,-1.4813743413880813,-3.0728352864583335
0.23232871889631246,-0.03066473220007929,-0.00022666635549749333,-0.016967428394130495,-0.006977155508452188,0.002756805226053784,-1.3942472496811225,-0.4044387404983108,-1.3674269456129808
0.23219360568715533,-0.03070583457846771,-0.00026744590594188634,-0.008064882938040325,0.0010363376923537184,7.302643338898879e-05,-1.4112374441964286,0.43317589393028844,0.6604894689611487
0.23174054916434472,-0.030695495654849303,-0.000431944526987127,-0.00729026154362616,-0.007100175246671665,-1.2612241161002115e-05,-1.4086963887117347,0.30644914215686275,-1.0153579711914062
0.23194797082430488,-0.03065506080381142,-0.000231305652262651,-0.008236335337382071,-0.006447381928048393,3.7992430163991665e-05,-1.4086963887117347,0.3347118144132653,-1.3803304036458333
0.23219956851522755,-0.030689565721610107,-0.00011636971403398154,-0.001411113370379611,-0.009388468411647163,0.00037231114324683703,-1.4086963887117347,0.4080810546875,-1.2205984933035714
0.2370862210175369,-0.03090182255341782,0.00045194788019884975,0.04553237048473979,-0.01280176332248532,-0.005685707310054941,-1.4086963887117347,0.9990822665662651,-1.2205984933035714
0.24243265281209372,-0.03266669944580645,0.0018027208808264427,0.30718499137073574,-0.024943184708192144,-0.009938656155173125,-1.4086963887117347,0.19933832908163265,-1.2205984933035714
0.2449447621206752,-0.03492553837060068,0.002992358238765764,0.8183583470926133,-0.050063325907162656,-0.029099697986436572,-1.4086963887117347,0.17309091605392157,-1.2205984933035714
0.2401672576254233,-0.03399237909220508,0.0019219841256799032,1.4760275550999238,-0.08725537701881492,-0.05646049101507331,-1.2537642045454545,0.2333187181122449,-1.2205984933035714
0.22690052522977627,-0.0315250123599963,0.00029978576006350313,2.0936038498165472,-0.11724402600177003,-0.07869893310881279,-1.3798479352678572,0.2518994140625,-1.2373893893494898
0.2094869502230653,-0.028797060631558718,-0.0012212647991414142,2.4935862861029303,-0.13696650834520596,-0.08615499790418804,-1.4189404296875,0.17713810847355768,-1.2285704320790816
0.19165836085708424,-0.02696034189690171,-0.0020497793097953667,2.6490863017382313,-0.1088908487901758,-0.10334885826700488,-1.4177146444515305,0.4317587575604839,-1.1552294921875
0.17825241423208887,-0.026067195529598866,-0.00043647093530848637,2.658878653885063,-0.08386408550663524,-0.08222027778268572,0.40096534838516745,-0.1627685546875,0.06797572544642858
0.16899364654458843,-0.026239166073091215,0.005233624172652529,2.6181545746008457,-0.0819955319728338,-0.06906194739184786,-1.3390599300986843,-1.3354706345942982,1.7548261819426547
0.15514449642279463,-0.025753104012685685,0.010565531648005723,2.421405339991766,-0.11266047909077259,-0.05246285838707325,-2.360289492849576,-0.1468144806338028,-0.09992327008928571
0.1490947064088247,-0.0258137796455903,0.012801235251066556,2.1930628376110106,-0.16652622500731876,-0.017972916672446666,-3.649280548095703,1.0952384702620968,-0.5250468351403061
0.1411372728314439,-0.0250351437591343,0.011772906165548578,2.0121715912537694,-0.2370446638386181,0.012370448927274342,-11.39920103783701,2.958159777582908,-0.5802525111607143
0.13037875089609197,-0.02418047669911797,0.006348446639009001,1.8074792002893876,-0.3040429982322741,0.03388677402656027,-4.648113382273707,1.5048332767210144,-2.03076171875
0.12545114516035602,-0.023257250481600718,0.0015555100017216948,1.7719403170063466,-0.3320666929204099,0.05169080381155278,-4.005306321747449,1.0653098366477274,-0.6083201282429245
0.1153059580227244,-0.02119441100210946,-0.0006765057960923686,1.7802865394592593,-0.34472576034918406,0.042352202814710777,-4.0139259805484695,0.8226082785087719,-0.7555729792668269
0.10685705192444106,-0.019863803988955975,-0.0001805698040476236,1.7283796140877963,-0.33241085647422475,0.036948041340013796,-3.969453125,0.9296781099759616,-0.6909129862882653
0.09860698948606203,-0.01848613618853708,-9.269997253327589e-05,1.706859634475452,-0.3236532078896867,0.03350260718336931,-3.4258143538135593,0.18892867476851852,-0.24971340013586957
0.09090939926493982,-0.016942211022413625,-0.00018184058260957306,1.6749528589089286,-0.31797348054558094,0.030957446609736115,-0.717042394950565,-0.20526832757994187,0.7347606714221014
0.0831233924375133,-0.015436153721109359,4.68679317297444e-05,1.6593280858739137,-0.3125231151846137,0.03086595672235992,2.767067110007591,0.5128126878004807,2.695604277820122
0.07529312779221,-0.013957326404178363,-0.0004893831918581459,1.6262700450464718,-0.3096232346049955,0.031176153435097564,0.2846072784251412,-1.0995468511814024,0.7194853283110119
0.06776647859375685,-0.01253900047521673,-0.0009567677055392554,1.611821649830622,-0.3083514594783554,0.029522773744093934,-0.6242142364758403,-5.449184251868206,-0.5774790445963541
0.059753309454911606,-0.011148402792007588,-0.0008828753462503628,1.6125135807367161,-0.3047384345748551,0.02847952755044042,-3.1969821068548385,-0.38634937661917096,-6.1764004794034095
0.05180274643978976,-0.009816774343026758,-0.0011893944788624376,1.5806850533419954,-0.29948329154589987,0.027366072012471425,,,
0.04417775296403541,-0.008398463479420977,-0.0005790979653401652,1.5495560005672857,-0.29435299283208816,0.027380085613761422,,,
0.036932793882346736,-0.006930379955442923,-0.00020320834308226444,1.514574339336808,-0.29037074266792834,0.027420569350821423,,,
0.03202028546640062,-0.00574443426468761,-0.0007915972370575324,1.5266043318163092,-0.2914195342128063,0.02744548241978142,,,
0.02474053582125004,-0.004454368114261253,-0.0016100946119343,1.495528021078117,-0.2912233344523455,0.027270312403656436,,,
0.017468194818648017,-0.0029953839367212166,-0.0011236773653945044,1.4826738933366785,-0.2849616856056032,0.027594130887553057,,,
0.008027406818313685,-0.0010711909630333183,0.0036650599813276403,1.4561170343457372,-0.261188324934759,0.02367880629737066,,,
-0.001027034516434216,0.0005937868051666812,0.010720079871299077,1.2729944252856022,-0.22172841578417304,0.02092817238860844,,,
-0.006696953069383475,0.0015915427604801064,0.015678378507993654,0.9436792917219106,-0.15457905321618376,0.01737242603688514,,,
-0.007875025202785447,0.0017893149046748185,0.016143754636166404,0.5618588388143122,-0.09109198963865459,0.012765147935716925,,,
-0.004638597942305032,0.0011495226344573348,0.012138468082933099,0.24737494106502117,-0.036892829582774546,0.007811031798680603,,,
-0.00241425949328059,0.0004914812874824369,0.005414306205284915,0.053436820145704035,-0.011726038582326867,0.005493033673360357,,,
0.00019753859028749987,-5.101801559722242e-06,-4.600690318673145e-05,0.008233025657647514,-0.006417407928936888,0.006210983798408376,,,
-0.00016281198202621063,1.6521693674538942e-05,0.0002124365055312764,0.0021996002288674553,-0.0031107959719504545,0.007104591627129508,,,
-5.177375372280935e-05,-7.30063783684694e-05,0.00012650939461443145,-0.0017388238675089158,-0.0014263490550608165,0.004524710654922616,,,
-6.83309427167557e-05,-3.5142608634994756e-05,7.343119602040396e-05,-0.003819090163534421,-0.000255473303933814,0.0038527374205396423,,,
-3.455592875903384e-05,2.002533685616159e-06,6.698868318182524e-05,-0.008821282316719676,0.0009639528603013228,0.0013864122876238382,,,
9.965310627554939e-06,-2.7627574305635242e-05,8.461821135614573e-05,-0.004477977015941496,0.005245395307948678,0.0012054811243018557,,,
2.797640011909457e-05,2.3474837488936032e-05,6.907595338927973e-05,-0.0016771593204154699,0.0009866252632221401,0.0022491306993316007,,,
3.705279979579276e-05,1.077986634714798e-05,2.252492062363347e-05,-0.0003442308348248271,-0.000766337379774631,-0.0006078549277499193,,,
7.913842319622387e-05,4.10410810708415e-05,3.056973697406383e-05,0.00017669248145032275,-0.002322522151351411,-0.0025248980173141235,,,
0.00011968035722094582,6.709738456372926e-05,-2.717612231813727e-05,-0.0006268085684876651,-0.0031665584487335827,-0.0013838431273873436,,,
0.0001910062651470836,1.1666547983573543e-05,-0.00010869180653636881,-0.00034105901575457066,-0.003710559529697178,-0.005670531154095269,,,
9.856790173312425e-05,4.78436325477551e-05,2.973983868276815e-05,-0.0004727254835159222,-0.005021719618731836,-0.002196898475836113,,,
5.041406066386673e-05,4.690156344528787e-05,8.092195258201111e-05,-0.0004470338811509243,-0.00821597765124946,0.0004916341135898714,,,
9.603793450725347e-06,4.4603113012531346e-05,0.00014945811693615799,-0.000363678904588941,-0.0052894074741624405,0.00014123287996389754,,,
-2.463202756001393e-05,5.1764275032806894e-05,8.191947139346471e-05,-0.0014989165929135467,-0.004011376979085136,0.003411537191712314,,,
2.4295879780973496e-05,4.905009582189093e-05,2.3734803609140983e-05,0.0010241248817407587,-0.0025092318491164362,0.0015525858194358093,,,
4.7972553687133164e-05,4.163923633969672e-05,-3.13284237658853e-05,0.002320793925151933,-0.002630637934737551,0.00026195053966895324,,,
5.3196377888894794e-05,8.542248181213049e-05,-8.097993065414227e-06,0.0016481117121062755,-0.0027455759060726896,0.0004358230001189315,,,
6.785664917535697e-05,9.450399013938983e-05,-3.4122041171507974e-06,0.00586957063078384,-0.002016878370660321,0.0004358230001189315,,,
1.3454302891841119e-05,0.00010045943742070217,-1.850845871352099e-05,0.002026007691575348,0.00043080955332080317,0.0004350444667139315,,,
4.804485348928726e-06,9.543626209293695e-05,-8.795558996294552e-06,-0.00015933379347999238,-0.0013298440504165253,0.0005432606100089176,,,
-3.751633876584838e-05,9.048052950235388e-05,-9.991760002405117e-06,0.0009016584630006408,-0.0026409218945675932,0.0004977568895534793,,,
1.990639140819881e-05,8.311528661430772e-05,-3.8549066282906204e-06,0.0005938652813339251,-0.002217730257482733,0.00021672460384958582,,,
8.661871071861699e-05,8.907294110611727e-05,2.3544576815595275e-05,0.000616442750078921,-0.002228629725152731,-0.0010181150829516135,,,
7.255799103694143e-05,8.693041717556075e-05,-1.6953597171469902e-05,0.000616442750078921,-0.002182696254257735,-0.002305371973534007,,,
0.0001266603809244975,8.553528531380195e-05,-2.1846969485198925e-05,0.000616442750078921,-0.002273323770866974,-0.004661576559370036,,,
7.613781219847447e-05,5.8616562055997104e-05,-3.428011140034316e-05,0.0006195568836989208,-0.004786191242419668,-0.0016948581397950725,,,
8.025605029449335e-05,1.6234878199658882e-05,-8.131637032659359e-05,0.0005035554063539401,-0.002820820476741892,-0.0017997323827605356,,,
4.853178914003669e-05,-1.821036497470767e-05,7.139091326767455e-06,0.0009490562844546856,-0.001361938028401189,-0.000580474506767947,,,
8.584355665440731e-05,-4.3471207392547144e-05,7.798581228406388e-05,-0.003508860974790907,0.0007810657618390761,-0.002941495469097778,,,
6.89228676532909e-05,-7.133396404918539e-05,5.0837502756764397e-05,-0.0005454681619665168,0.0014291624219295066,-0.00023459137760864648,,,
0.00010111545152132369,-3.790498937605595e-05,0.00013306070131539901,0.0011787774285103648,0.0009873373617765569,0.001161610766930096,,,
6.667050973822427e-05,-9.335073486779875e-07,8.165905399403242e-05,0.003923118061580509,0.0038713107598931933,0.0024575317666012996,,,
2.632520334922308e-05,-2.0184179204688332e-05,4.3317661992543714e-05,0.0011661361831636862,0.0007675693043679817,0.004362827445823288,,,
-8.019325259238863e-06,1.417485679090275e-05,3.155420111509796e-05,0.001375512819953839,6.83260379563123e-05,0.002316219660641851,,,
-5.875747314221691e-06,-9.855217930416124e-06,1.596314939210234e-05,0.0013677274859038406,-0.0017909239816543804,0.0012356817326374615,,,
-2.6265294980882018e-06,-2.3713288776310046e-05,-1.6842055615764922e-05,0.0013435929503488428,-0.00031046714447694433,0.0017026330933996652,,,
-2.1811940806511968e-05,4.9986106046996134e-06,1.1971975288780437e-05,0.0018654438917202875,0.0009236693324342185,0.00045067059198798274,,,
-1.1554492648281563e-05,-4.042612558802991e-06,3.160533281351343e-05,0.00016982733063315936,0.002071051129274569,-0.0009453208700023507,,,
-5.587275639197259e-05,-5.767375464244942e-07,4.820483345375148e-05,0.0008360919954556057,0.005324901901488093,-0.0033228176232257857,,,
-2.2649906659919837e-05,-2.096011230811992e-06,9.084139530627103e-05,-0.0023258141256846413,0.0016565514017218123,-0.0011551949439152578,,,
-1.7450680611992252e-05,4.1089011394501085e-05,7.585566270947035e-05,-0.005629045920420465,-0.00014218035002934592,-0.0009016973896708718,,,
2.149759711611912e-06,5.530043677372619e-05,8.190111533418262e-05,-0.0021261781139826005,-0.0021361517080863736,-0.0009305031256558674,,,
4.664574652761614e-05,7.893785519060394e-05,9.829549500560878e-05,0.00016003832830636803,-0.0026062513645294496,-0.0011025505150691582,,,
3.987170599920467e-05,4.410863650342341e-05,7.378464591016042e-05,0.0028864010652089713,-0.003092481740969475,0.0008685175816012945,,,
7.937817363152494e-05,3.1461704165084954e-05,0.00015825398662950308,0.0037866392171671016,-0.00223319193090603,-0.0008089265895862981,,,
3.913136360680446e-05,3.668785495761607e-05,9.129814340832689e-05,0.006955283359516243,-0.004462011498435293,-0.0027898474244073003,,,
-2.6308750374819546e-06,4.633908679900008e-05,4.224895256117293e-05,0.0037677427631044418,-0.002451047137011593,-0.005584173231546172,,,
-1.123488062177092e-05,3.827519349669193e-05,5.352214117865791e-05,0.0022629876335786975,0.00040667174972199434,-0.0021556390127082225,,,
-4.484694967498414e-05,3.909732477237185e-05,4.655162641894204e-06,0.003880280809665878,-0.00148310920968298,-0.0033531531070022137,,,
-8.32968460678149e-06,2.662190618610135e-05,7.506443567146137e-06,0.0034042533589074306,-0.002602512135731491,-0.0018055126158652438,,,
-1.0005188146617167e-05,1.2238299071595875e-05,-3.989549894568154e-05,0.005790353099154619,-0.004354804454207546,-0.0001792962431714762,,,
1.333337616632283e-05,3.633617514512683e-05,2.763421112979776e-06,0.002712254676338715,-0.004812463759269946,-0.0004957818237515595,,,
4.927608965207144e-05,3.32098965192195e-05,4.1592368629045575e-06,0.0025086068065666134,-0.007238444128709695,0.0005653217279220844,,,
4.949867479240899e-05,4.697535262032857e-05,6.127177671754778e-06,0.001748849313472229,-0.004588472859769791,-0.0003901148941569749,,,
9.239560281858548e-05,4.1246663160029486e-05,3.062297668154123e-05,0.0017034555995247822,-0.004764313025237511,-0.0019656629689831806,,,
4.5108848312413604e-05,4.187977263111986e-05,2.5621845771943215e-05,-0.001544403477584115,-0.0046771172838775184,-0.000575083162938305,,,
4.4118778038874125e-05,7.510894773737538e-05,2.742804327154304e-05,0.0013906784073915441,-0.0044925041155107134,0.0006311900201370083,,,
3.963522057945655e-05,3.9974808357632046e-05,2.7116629909543054e-05,0.0006877393795586919,-0.005215395280094477,0.0017500660693263172,,,
4.536393322549482e-05,4.109864330829803e-05,2.941625272201128e-05,0.0024164725350368957,-0.004721493687962516,0.00031384178735169597,,,
5.8286914393854204e-05,1.0100100711081098e-05,5.939167322376743e-05,0.0020878708855287652,-0.003849976314982803,0.0002972440540289433,,,
1.4468750907177981e-05,-2.629914242988398e-05,3.593468117661725e-05,0.002129911689398761,-0.004732393155632514,-0.0002587240803338289,,,
3.09936407803823e-05,5.106435762966885e-06,2.8250174547222313e-05,0.002129911689398761,-0.0046218414121225225,0.00030425085467394316,,,
2.8778331609135155e-05,-8.082482670900252e-06,2.4861997168662615e-05,0.002129911689398761,-0.00464753301448752,0.0002231666005432045,,,
2.7071645368004e-05,1.420916888133415e-05,2.1907594648493924e-05,0.002133804356423759,-0.004620284345312522,0.0008534778615957525,,,
3.85614752540336e-05,1.2415427916214313e-05,2.5596932702982353e-05,0.002107334220653763,-0.004920804467909734,-0.0001702196175083472,,,
-5.893396126932319e-06,3.303425194046797e-05,3.1729261979234686e-05,0.0025716882666695353,-0.007945274873567214,-0.002535672539866936,,,
-3.908296697737299e-05,2.113711966307506e-05,2.9695132546901968e-05,0.001937391277809954,-0.0052424395842506554,3.8770963568996765e-05,,,
-6.0851292022899843e-05,2.198204639685343e-05,3.4814133640287305e-06,0.0021774516340313825,-0.00480030721966202,0.00029992065187534284,,,
-4.0255709205286796e-05,2.2704525396693367e-05,-1.0436312957089825e-05,0.006576241207683715,-0.003988458351842195,0.00019525617797396414,,,
-7.827959049567682e-05,2.2741895000133363e-05,-3.460798974576409e-05,0.002647293083254952,-0.002874428647992493,0.0002638325144199788,,,
-4.430587151107916e-05,2.076432433193753e-05,-7.113073338208576e-06,0.0005446706205091164,-0.000979540113806247,-0.0001892783389792545,,,
-1.2075156916007893e-05,2.2405568569173394e-05,1.0019527547736276e-05,-0.0018402297898437137,0.0009830229891571703,0.0006455890944285896,,,
8.186472788048375e-06,3.4186714634582136e-05,5.1701037998304595e-05,-0.006068547943513725,0.0002712410383019627,0.0026946105471195555,,,
4.165696231606045e-05,3.1001922666096416e-05,9.600309254232532e-05,-0.002335114776523655,0.0002743551719219614,0.003531962589856149,,,
2.230093367953574e-05,7.369230248955952e-05,3.456496365048394e-05,0.0016052851584788962,0.00028992584002195733,0.004536804331567297,,,
2.28490211966557e-05,2.975199807520422e-05,3.651471333784594e-05,-0.00022405052078718928,0.0003381949111319484,0.0036807032516945116,,,
2.2562520903615718e-05,-2.0568639263275412e-05,-1.898383978577615e-05,-0.0011018983360630199,0.0004026154362620755,0.005667686031123277,,,
2.2562520903615718e-05,-2.782569981635625e-06,-0.00010862011085580556,-0.0031967528305916755,-0.0008702697540897057,0.003909639053228591,,,
1.6256537556124114e-05,-2.3882913558502263e-05,-3.471293058533843e-05,-0.007327606499543456,0.0005660884306723879,0.003959465191148589,,,
2.3123064955215704e-05,1.663963039736777e-06,-3.929747542824698e-05,-0.004610750443132206,0.00047288119019693223,0.003405574527003209,,,
3.261489631922689e-05,3.529797343827982e-05,-4.382642921366713e-06,-0.0026748321913843487,0.00047288119019693223,0.0015915493520629264,,,
3.118878636929831e-05,-4.1138950773701045e-07,2.3472063079014476e-05,-0.0004129618744202979,0.00047288119019693223,-0.00042948801256951043,,,
3.6457526584206625e-05,1.4437602559736735e-07,8.094908644665595e-05,0.0019835875155251098,0.00033675080799248463,0.0007433436950938775,,,
5.5848047516484926e-05,-6.097434335534797e-05,4.0832731153205964e-05,0.0030665761284218653,0.0015648029132609663,0.0007176520927288794,,,
1.6279929332690007e-05,-5.6536556087941684e-06,-7.951567723826769e-06,0.002860954556693711,0.00356865954287477,0.0007293300938038775,,,
-2.8548828377929652e-05,4.698740695322189e-06,-1.4046891988978384e-05,0.003377830516953591,0.0009168938153972555,0.0007293300938038775,,,
-1.9565954986999632e-05,3.7229252268772365e-05,-3.227947302275316e-05,0.0068981368449964695,0.0016113558084245336,0.0007332227608288772,,,
-7.849028914296826e-05,-6.677619420623481e-06,-8.3963379929873e-06,0.0033147039163123277,0.0005187601637535797,0.0007231018265638775,,,
-3.331603951130213e-05,-7.88569020535499e-05,1.5120126238973306e-05,0.002276833399456748,-0.0008291278660507231,0.0014647942619173322,,,
1.1361336804612446e-05,-3.2815428873401456e-05,1.1768331041177396e-05,0.00259858879920873,-0.0014868797337349335,0.0007378939612588815,,,
4.094248786881232e-06,-4.0448922101764014e-05,-5.35313730274704e-06,0.00259936733261373,-0.0013221381267738378,0.0007363368944488794,,,
4.6059155216613726e-05,1.1469004731857104e-05,-5.527031932099054e-05,0.0017766223130995455,-0.0011029655756056881,0.0007487934289288794,,,
7.343572169201484e-05,4.442830220092854e-05,-0.00019829225819395884,0.0023327585680715038,-0.00395806317124551,0.0007487934289288794,,,
3.458764407279015e-05,5.157628101443507e-06,-4.737881217264454e-05,0.0022206030457472157,-0.0015816684655978095,0.0007487934289288794,,,
3.7580718631767743e-05,-1.254507633073085e-05,-3.292703024381121e-05,0.0022560341010087613,-0.0017272542123327858,0.0007487934289288794,,,
1.395494059454121e-05,-4.442911537612097e-05,-1.692300573842717e-05,0.0022560341010087613,-0.0017285683767204257,0.0007487934289288794,,,
2.829417965072102e-05,-1.3641773735771361e-05,-2.678279478541454e-05,0.0022560341010087613,-0.001709108508272479,0.0007487934289288794,,,
2.6523698868255266e-05,2.5264322811784594e-05,-7.910727586007811e-05,0.002205429429683766,-0.0004394540288684787,0.0007487934289288794,,,
2.5670949430823582e-05,3.5528363742082674e-05,-3.6435438093171026e-05,0.0021890802281787688,0.0004347275707223295,0.0007487934289288794,,,
3.076998199407295e-05,7.032779226754255e-05,-4.04123754903179e-05,0.0034503867772274176,0.003066555320347202,0.0007487934289288794,,,
1.90255389893922e-05,2.1232780336141125e-05,-1.4827572632909039e-05,0.0022868282113101316,0.0026660097920817084,0.0007487934289288794,,,
-4.452531629271829e-06,-3.9872636087118437e-05,1.2232954170448227e-05,0.002397457808160618,0.002792132203691699,0.0007487934289288794,,,
3.2058796601308236e-05,1.9991971284429423e-05,4.197981602160405e-05,0.001504474964065677,0.002008723805693984,0.0007487934289288794,,,
3.9877519048629365e-05,3.845332193975618e-06,0.00012003311258279678,-0.0006469548781335556,0.003344655892289201,0.0007316656940188815,,,
7.025241200944142e-05,3.0882077806275725e-05,1.9581307097252905e-05,-0.0029962256410838027,0.0032678161141466598,0.0007417866282838819,,,
8.256860328160043e-05,6.036016200968289e-05,-4.4561307134504084e-05,-0.0012956690780127368,0.004170193696160894,0.0007329783013397119,,,
6.984752578969134e-05,-5.382774086446077e-06,-0.00016725170548606585,-0.001449784906790809,0.008372343888020613,-0.0008290441375834726,,,
7.186211378376583e-05,-6.357538386714315e-06,-5.902049404281023e-05,-0.0016902255528322243,0.004426738057372513,0.0006793360369141833,,,
5.628630431022393e-05,-3.52523805688155e-05,-3.5791707670680136e-05,-0.0011927650786868335,0.0020374085398418736,0.0007044170248438855,,,
1.7026980709949938e-05,-7.239260523010686e-05,-4.334998564381171e-05,-0.0013256477553635763,0.0025112851558504895,0.0006974102241988875,,,
-2.0039648892417737e-05,-3.220280126924043e-05,-4.190502764413182e-05,0.001865687390466139,0.0002567820824190202,0.0006974102241988875,,,
-4.693567236765093e-05,-2.5415584363237612e-05,-4.922340238061201e-05,-0.0006226538895839946,-0.0009821645029957568,0.0009448476036429852,,,
-8.432831954440231e-05,-1.2468287823016765e-05,-2.485137744513857e-05,-0.0007158385678560727,-0.003692474268252332,0.0026621677297280345,,,
-4.999574347105193e-05,4.130541537077766e-06,1.825427811625177e-05,-0.0033224965130540032,-0.0009071894647963195,0.0011299879692822793,,,
-1.9513894000247442e-05,3.473498612392252e-05,8.880263430823038e-06,-0.006853352521846102,0.0007837322780710605,0.00011544213103707623,,,
7.091810617096288e-06,2.5499046990180794e-05,9.777133913382919e-06,-0.002552958091304543,0.002170628986480252,-0.0023585272605089456,,,
8.299837773173075e-06,1.9243498768209156e-05,9.64011203410298e-06,-0.002809309109132517,0.004465920634436162,-0.0008100827503732472,,,
1.0255464837376862e-05,6.431642018954146e-05,8.668502344662918e-06,8.200066798245005e-07,0.0025759147923215004,-0.0004632273759749302,,,
3.271249766407369e-05,1.6109413216258026e-05,3.222477159671038e-05,0.0021342651979715777,0.00267379512613171,-0.0010382446147136231,,,
1.2607646537565076e-06,2.3833228437952904e-05,1.6771010903843698e-05,0.001649070336597721,0.0026076197867067165,0.00035627042583934854,,,
6.676971151624265e-06,2.289376506851355e-05,-3.981162336148848e-05,0.005693738739833818,0.0027483443708608848,-4.929337682520134e-05,,,
-1.2917564661702299e-05,-7.792128523361426e-07,4.059584587063789e-06,0.0024479057074431117,0.0016224926202054958,-0.0002059279613462864,,,
-3.0874074332438e-05,2.824913309922395e-05,4.271345673223775e-06,0.001594372034715941,-0.000427297280800784,0.0020489827781483613,,,
-1.6117363416212547e-05,2.2235559941178002e-05,4.346084880103766e-06,0.0006745966428638753,0.0006360334815792852,6.645806997732517e-05,,,
-2.2902967572916525e-05,9.635787501345426e-06,6.8498483105834195e-06,0.0015481207534187261,0.0016124581642098848,-0.0009207052827539531,,,
4.6224642388402654e-06,-2.2363234943784838e-05,5.579281793623472e-06,0.00259770050535647,0.0008115432213718992,-0.0024413899291824753,,,
-1.8689535203161857e-06,-4.624302752827205e-05,2.251188875492173e-06,0.0011302747973788666,-0.00036788675968336525,-0.006910534989471071,,,
3.262941017521622e-05,-6.913084891249206e-05,3.3802301095903647e-06,0.0007495719623339104,-0.0012219911376249197,-0.0031788127155369344,,,
-5.2834013526258675e-06,-4.8124810338980584e-05,9.988894999543066e-06,0.0009192922446238884,-0.0017913275115642858,-0.0037334130826402138,,,
-3.160683055969236e-05,-2.5720212211933028e-05,1.0175743016743123e-05,0.0008389538254951366,-0.00450890899541092,-0.002042991678619704,,,
-1.691903332354173e-05,-1.1526187061024388e-05,2.78984389217469e-05,0.0010826441236609747,-0.001965392010254161,0.0004329332673039164,,,
-2.8322422447179652e-05,3.284030980475464e-06,8.01172991065129e-05,0.0009512121142288884,-0.0015948695611160372,-0.0013989466754443397,,,
-2.813557442997967e-05,2.247366975438937e-05,2.1104887833799443e-05,-0.000767406798202453,-0.0018532364879298774,0.00018371113990746227,,,
-2.7251160481899752e-05,-5.1256388204301e-07,9.43348926841142e-06,-0.003591686821598911,-9.603378797065728e-05,0.0020617662507046884,,,
-3.496703103374096e-05,3.061164354801807e-05,-4.636959723474369e-05,-0.0007591479232154127,-0.00230465236724892,-0.00018638941236610895,,,
-5.361629292955224e-05,-2.4723383621055082e-05,-1.1130761115866996e-05,-0.0006516754135521062,-0.0013650398531926664,0.003207610946341926,,,
2.4504051100924275e-05,-1.0325289685453922e-05,3.9891707478495914e-05,0.0016650487944014846,0.002263904488708225,-0.0007087100172845578,,,
