acc_x,acc_y,acc_z,gyro_x,gyro_y,gyro_z,mag_x,mag_y,mag_z
-5.017668797520003e-05,0.00016778937789401074,0.0003946129242878533,-0.029655899917949827,-0.02120253781856838,-0.014854121524704687,8.501521428426107,-3.831980543870192,-8.635474163552988
0.0002429837150046313,0.000254319364259593,0.0003171294375954249,-0.01981032746360662,-0.032555196115332814,-0.011072869171483823,-12.564508176317402,-1.4471560108418366,-4.502736183449074
-9.722627440207065e-05,0.0001743874583011079,8.147858033926915e-05,-0.01903416753341978,-0.031911920369177574,-0.034006779968738944,-2.1958043195199277,0.5708247593470982,0.17908586774553573
3.063706214741809e-05,0.0001378426360414787,0.00035803047015542464,-0.015201907456872537,-0.03428824272781649,-0.013011119902757566,-6.220964499080883,-8.183242104270242,-6.918339923145325
3.027680288094175e-05,0.00012588536375879325,0.00041101476882936727,-0.0189626758629108,-0.045153152053387186,-0.014020297552038319,-8.461846245659721,-1.81644515687251,-10.451749361478365
2.4261697770541014e-05,0.00013640356804969471,0.0005814063965644049,-0.018973910863212998,-0.030067427221140232,-0.0006128288012500673,-8.6216357421875,2.0756749260355027,-10.7247998046875
3.683217871638593e-05,4.719447508117435e-05,0.0003990784246261342,-0.018797170531096863,-0.033166065713904916,-0.01499468273661818,-8.6216357421875,6.371340797061012,-10.7433056640625
3.6905423139128316e-05,0.00017363530981535057,0.0003450586019857522,-0.019941535562445302,-0.06416555996050322,-0.016159932248908923,-8.6216357421875,4.7519384765625,-10.7642041015625
3.675893429364353e-05,0.0001984269888258155,0.0001972785226634252,-0.004339803074047882,-0.01938033985492995,-0.01620799890133362,-8.6216357421875,4.7096044921875,-10.7548291015625
3.605090487380039e-05,0.00019147214398431756,0.0003458626774785882,0.013059748940468626,-0.013329225163433642,-0.016267509994811816,-8.6216357421875,4.7155615234375,-10.7394482421875
3.496444593645489e-05,0.00031778966108838457,0.0003971044516930823,-0.03153281143174245,-0.012157669923104629,-0.016196554460280118,-8.6216357421875,4.6960791015625,-10.7217236328125
3.6185186315494784e-05,0.0001956016724142784,0.000405899838251884,-0.03828740518805811,-0.009477921185285785,-0.016168324839014824,-8.6216357421875,4.7155615234375,-10.7567333984375
3.638050477614116e-05,0.00020455670880513579,0.0004067299417096319,-0.03942529022640102,-0.012485748946021441,-0.01790692304882907,-8.6381884765625,4.7330419921875,-11.941220041048728
3.638050477614116e-05,0.00017480324038747082,0.00040848780785545004,-0.05143142866873398,-0.012518387401959255,-0.01578361821899523,-8.6397998046875,4.7240087890625,-36.66843017578125
3.638050477614116e-05,0.00016680440687272445,0.000412113406781198,-0.037908626385824505,-0.01260155034028135,-0.011939690010701118,-8.6703662109375,4.7222021484375,-13.525667485502577
3.638050477614116e-05,0.00016698751792957846,0.00041003814813683195,-0.03781319620349735,-0.012823572496719227,-0.015142363088496149,-8.6756884765625,4.053030545594262,-10.7052685546875
3.638050477614116e-05,0.0001629162224819935,0.0004162331572742609,-0.037670522171697064,-0.01299981688894311,0.010266213508042155,-8.640447878370098,1.128190176827567,-8.089178145559211
3.602649006621959e-05,0.00016690206610304643,0.0004045204016235699,-0.03764229255043177,-0.013036439100314306,-0.022898940978930128,-9.136070137593284,3.271123798076923,-15.25857219290226
3.612414929654279e-05,0.00016896511734362446,0.00040303109836113996,-0.03763618884853657,-0.013050935392315404,-0.028812921954973852,-21.615765487938596,4.392356695130814,-23.006099700927734
3.544053468428045e-05,0.00016896511734362446,0.00040293343913081793,-0.03764458143864247,-0.013115787224951896,-0.030602053895687695,-8.32568359375,5.532528525904605,-11.727495687262056
3.956663716543527e-05,0.00016967314676346844,0.00040086002356505687,-0.03766136661885427,-0.013099765007476998,-0.030575350199896198,-6.8758837890625,6.464694782838983,-7.092970969460227
8.134602943613923e-05,0.00016967314676346844,0.0004031287575914639,-0.03766136661885427,-0.013060090945158203,-0.030544831690420195,-6.777889476102941,6.894942938112745,-3.2415599333934293
3.5070949776316596e-05,0.0001688308359019304,0.0004031287575914639,-0.03766136661885427,-0.013067720572527202,-0.030539490951261895,-6.8161669921875,7.899610114820076,2.536373046875
3.8956266975915365e-05,0.00016946562089903042,0.0004031287575914639,-0.03766136661885427,-0.013075350199896201,-0.030539490951261895,-6.8566455078125,7.0983251953125,-1.6566622374487705
3.7125156407355533e-05,0.00016925809503459243,0.0004031287575914639,-0.03766136661885427,-0.013178350169377693,-0.030539490951261895,-6.8198779296875,7.0472998046875,-3.9678173828125
3.7784356212037077e-05,0.0001696948807294318,0.0004031287575914639,-0.03766136661885427,-0.013211920529801288,-0.030537202063051196,-6.8033740234375,7.0762060546875,-3.8487783578725963
3.7784356212037077e-05,0.0001768747572988797,0.0004031287575914639,-0.03766136661885427,-0.013238624225592785,-0.03271164586321599,-6.8235888671875,7.0787451171875,-4.0928173828125
3.7479171117277105e-05,0.00019146312238368398,0.0004031287575914639,-0.03766136661885427,-0.013235572374645186,-0.03270706808679459,-6.8378466796875,7.0787451171875,-4.0748486328125
4.540710304435228e-05,0.00017163853877372642,0.0004031287575914639,-0.03766136661885427,-0.013221076082644088,-0.033273186437574334,-6.8457080078125,7.0787451171875,-4.0473583984375
1.1249885555585107e-05,0.00016597760659482985,0.0004031287575914639,-0.03766136661885427,-0.013154698324533795,-0.033273186437574334,-6.8007373046875,7.0787451171875,-4.0473583984375
-0.00017280178919077676,0.00014052269180126124,0.0004031287575914639,-0.03766136661885427,-0.013162327951902794,-0.033273186437574334,-6.8007373046875,7.0787451171875,-4.0708935546875
6.359397515130311e-06,9.985393775731297e-05,0.0004031287575914639,-0.03766136661885427,-0.013252357554856984,-0.033273186437574334,-6.8007373046875,7.0787451171875,-4.1003369140625
3.361355585238823e-05,0.00014620713616649687,0.0004031287575914639,-0.03766136661885427,-0.013199713126010891,-0.033273186437574334,-6.8007373046875,7.0787451171875,-3.681994082322761
8.20491881199282e-05,0.0001436909521338541,0.00042767494735554374,-0.03766136661885427,-0.013652196351730145,-0.033273186437574334,-6.8007373046875,7.0787451171875,-4.615578573258197
0.000236231810504626,0.0002190272430079137,0.0004023352763450839,-0.03772927030243836,-0.01763693816478551,-0.033273186437574334,-6.8007373046875,7.0787451171875,-7.4328756893382355
9.367699266612179e-05,0.00017214152664288642,0.0004030677205725099,-0.037681203650013664,-0.01390074920061656,-0.033273186437574334,-6.8007373046875,7.0787451171875,-3.7960400390625
5.666428876612639e-05,0.00016109810951214426,0.00039813592944119196,-0.037592699972533276,-0.013723605229316647,-0.033273186437574334,-6.8007373046875,7.0787451171875,-3.4871044921875
3.2055172943864007e-05,0.0001515373311200947,0.0001729999291740234,-0.03444445833506447,-0.0141623917633317,-0.033273186437574334,-6.8007373046875,7.0631689453125,-0.35533905029296875
-0.00010129885602538486,0.00011596237465846925,0.00037825449568894477,-0.01839964115319269,-0.012313323740725243,-0.033273186437574334,-6.8007373046875,7.0308935546875,3.006268669577206
-7.660145878473954e-06,3.160862138644195e-05,0.0006668951221157687,-0.03521162791115157,-0.013970474025332144,-0.03328310495315403,-6.8007373046875,7.0444677734375,7.044168354552469
-0.0009630518509475541,0.001408504898220722,0.0029951878414258117,-0.06556294052226384,-0.0012522540573031364,-0.03140905048197439,-6.8007373046875,7.1081884765625,9.850684829905063
-0.002074979788967451,0.002884758445997446,0.006322450025940712,-0.09734946745200959,0.032368578512564805,-0.04056415114415535,-6.8007373046875,7.0702167585784315,12.933208759014423
-0.0033371091831346264,0.004047061935220526,0.00966656858516764,-0.20994064149906916,0.12243064668721576,-0.05015565306835861,-6.8007373046875,7.134679457720588,16.919109407018443
-0.004349573313089344,0.004588276968552809,0.012561985108119,-0.3847846230993999,0.24020996734519484,-0.06348117007965325,-6.8007373046875,7.848712789601293,20.857657296316965
-0.0033459004486220472,0.0027452156132693924,0.012374062929166514,-0.5990577410199286,0.3721002838221382,-0.0690746112998302,-6.989606584821429,9.252142137096774,24.661301832932693
-0.000169912411877796,-0.0010430347605822614,0.009058446607867648,-0.7999336222418901,0.47275251331441986,-0.07890036896360687,-6.851184321384804,8.733308490953947,27.5086962890625
0.004302147892696868,-0.005392215338602813,0.0054172466200750604,-0.9632200188342802,0.5179421369060333,-0.09631641590624715,-6.149693585824275,10.89710163620283,27.8671435546875
0.009650233945319152,-0.009625889461958631,0.0021415607165745777,-1.0843364022601139,0.5433383498133284,-0.07623840368617525,-4.201451852780964,13.745225503411092,29.049144071691178
0.0160773119296853,-0.013847148655659612,-0.0006580514044730507,-1.1247344532036803,0.5045262001403852,-0.07029454469905222,-6.023667609554598,20.18365437552433,31.65681198408019
0.020824722434156263,-0.016668725170050885,-0.001299062390773889,-1.1707724920557578,0.4621871089815975,-0.05872180852687151,-3.5752004343312938,11.562049696180555,33.5469775390625
0.026077421796319417,-0.01903447737052517,-0.0011202596261424172,-1.2202964040872601,0.4089790690897164,-0.05305979473609564,-0.3908964494197427,8.118594041511194,33.5131884765625
0.032080426836568636,-0.02115194687146377,-0.0016215458981427002,-1.2021097498218873,0.34678136539811405,-0.03753671429308078,5.983557069935085,6.3579443359375,33.5430712890625
0.038952073311773874,-0.022863603206717376,-0.001182748356108677,-1.250536362804041,0.2873335978270821,-0.02551785389320099,16.829484528186274,6.3579443359375,35.38886534492924
0.0459595491028945,-0.024498046815393488,-0.001269679634772491,-1.2223867525654306,0.2257876827295755,-0.0129819576919555,2.1064631590369154,6.3579443359375,36.6856494140625
0.05223511703848379,-0.025723491595898467,-0.0007826796629574238,-1.2477413310977028,0.1645202490310373,-0.00409769679156559,-5.564648198146446,6.3579443359375,37.0950244140625
0.05743186860138362,-0.026333181397097945,-0.00010913879645359101,-1.2858693631403042,0.10337565233314004,0.004974870268076824,-10.476602991615854,6.3705908203125,37.0994677734375
0.06410042054506053,-0.026914760153384336,-0.00026887028801144,-1.2332249064142142,0.044719840083010304,0.01746377198604283,-13.125171802662036,4.061069421600878,37.0758837890625
0.06912972441785936,-0.026667643642850476,0.0004304817103457292,-1.2453614800068549,-0.0073340556047242576,0.023910151747419377,-18.37982815415112,2.6862205222800926,37.0758837890625
0.07531819807203631,-0.02630775583038168,0.000835784421770295,-1.2612758530592658,-0.06490874965666672,0.035206534012878786,-21.2616455078125,0.8761010263480392,37.0758837890625
0.08297311563463233,-0.025848495410712175,0.0014320663240876116,-1.195774254585405,-0.11757683034760577,0.038275014722355,-22.920951704545455,0.8115087890625,37.0758837890625
0.08984020752586437,-0.024252759082697337,0.002721518601031512,-1.1564049220852448,-0.16595694014381257,0.04723076593055133,-27.19733718345905,-0.41192948190789475,37.0974658203125
0.09729987121188993,-0.022270325776112574,0.0046652843577080294,-1.0538164742504563,-0.21286429035699528,0.06494592166713994,-27.5115771484375,-1.7105544517780173,37.1002490234375
0.10339010834070857,-0.020044377503190925,0.006908902249214138,-0.8798202371757701,-0.19053226334656578,0.041381803252351745,-27.4932666015625,-4.262819602272727,37.1242236328125
0.10779973998229918,-0.01791168919949945,0.009193069856868174,-0.6581010635401349,-0.17223319193090605,0.024891729936058038,-27.4932666015625,-4.5328271484375,37.1033251953125
0.10821507248146,-0.01685175604101922,0.00978004371189587,-0.41519258353268174,-0.13924240957313022,0.002036039682628914,-27.4932666015625,-4.965413411458333,37.0385791015625
0.09196610248115475,-0.018464330983408057,0.0031796445751244512,-0.2923249910205153,-0.19295754875331889,-0.025006668859478044,-27.4932666015625,-4.5402978515625,36.9994677734375
0.08882868803032486,-0.016403181159002526,0.0004972230930786915,-0.2072216588212101,-0.2978557695242164,-0.04386034909584422,-27.4932666015625,-4.5402978515625,36.9837451171875
0.08770911335311068,-0.013891083101901253,-0.0019863606677449053,-0.2523674733726005,-0.4117668691061127,-0.05774339727624509,-27.4932666015625,-4.5217431640625,37.0500048828125
0.08855125045104557,-0.010551198461867084,-0.002816371325287136,-0.3485249343981363,-0.5226848658711506,-0.06592553785105226,-27.4932666015625,-3.405780214251894,37.81436011904762
0.10597388573032285,-0.00509435072371388,0.002041273232215314,-0.4079794881706864,-0.5491967909787284,-0.0770930148680629,-28.6252490234375,-4.8547021484375,37.0472216796875
0.11089263530784246,-0.0027699575792717725,0.0028340524377091125,-0.47767959325366555,-0.5065040453979782,-0.07480787211079883,-28.666724111519606,-5.6573036595394735,37.0529345703125
0.11412017728374897,-0.001236480300302082,0.0026015532193860292,-0.5402825251014738,-0.4664047699256525,-0.07680551663674923,-31.05155029296875,-8.179517842955509,37.0529345703125
0.11765467887646404,-4.55424942500302e-05,0.0031337354994693026,-0.5950201422162543,-0.4236957914975431,-0.08760997655247398,-40.436389332086264,-10.164097377232142,36.54819869995117
0.12160636435257237,0.0006503234396846466,0.002985592822046549,-0.6506307254595194,-0.3780957976012451,-0.0838173255925873,-49.3655810546875,-12.449823218655874,36.964915308459055
0.12574666698315484,0.0009683067865405697,0.002925911999589987,-0.7234212913768562,-0.3187754448072756,-0.09549518050813757,-58.21078439486229,-14.125545942603644,37.07078642003677
0.13026107228478512,0.0005022281503927824,0.004079516140517698,-0.7886424563866409,-0.24648091067232275,-0.10606874255133171,-65.66731696172592,-16.27189708891369,39.636104583740234
0.1346908194219794,-0.0003242539013704589,0.005164989884011678,-0.8487932703912199,-0.16179433576464117,-0.12418001583750016,-73.61642918442234,-19.87213062959559,41.704229736328124
0.13844376010925621,-0.0023859151896379396,0.007326934069296796,-0.9231200598162782,-0.0604934842982268,-0.13513634144108397,-80.46530652402052,-24.59971923828125,43.91754677854938
0.13478487687631027,-0.007721619922482939,0.018281384319589807,-0.7854762413403726,0.02441226437167471,-0.1527189735292765,-84.09579634232955,-29.057266626602566,46.930517578125
0.13318799035615098,-0.009573376987517875,0.024510722245579236,-0.5719969786675617,0.05915265157660219,-0.12446783349101224,-85.04668830422794,-33.54386921672078,51.64388568584736
0.1325230774864955,-0.008840951614076964,0.0240465627002777,-0.35488830225531787,0.0401847895748771,-0.09149598741440598,-85.09133252910539,-38.294863157634495,47.585874495967744
0.13152010906683864,-0.007807536193778404,0.02304424018621838,-0.1011745811334574,0.02367466436575596,-0.048713603952582896,-85.0128955078125,-40.79449152542373,44.47138589115466
0.13624266121402628,-0.0029524894626368173,0.012485614185003182,-0.02279920165648256,-0.0008618581600120168,-0.014678439315550108,-87.04882486979167,-42.70485276442308,42.980479065801056
0.13799538268823672,-0.0008408513017112659,0.007231774615421859,-0.03392174326205899,-0.011185408950528448,-0.018055131687368338,-91.89944196428571,-42.6731591796875,44.1221728515625
0.1381666882839442,-0.001108063600573698,0.007167990830883367,-0.0169686259014337,-0.009153529835542188,-0.01840838343455301,-106.29225233734631,-42.6731591796875,44.09750131460336
0.13806254097109896,-0.001086511254790265,0.007067650952177483,-0.00896274310708424,-0.016481902523880685,-0.018433561204870705,-92.80976592828029,-42.6731591796875,44.99633014012897
0.13806372384459017,-0.0011123483993041243,0.007123175696255839,-0.00969191564683976,-0.015793035206622005,-0.019612763098565706,-89.18372462951031,-42.550739156788794,48.07568129053656
0.13808165776543474,-0.001102494918069718,0.007133865552202487,-0.0100478452436304,-0.015484328745384031,-0.018743324076052073,-90.02041533499053,-43.172472723599135,44.852775198514344
0.138101242807609,-0.001249059990781791,0.007183120593890178,-0.010000152592547329,-0.01967113695903929,-0.01861514633625289,-89.75582682291666,-44.7223779296875,43.83517677196558
0.13791582786412943,-0.0011281934912878982,0.00714026029514171,-0.013151598646071322,-0.016736986398917568,0.0009512007089624709,-96.94958069274476,-44.7655908203125,41.95783588248239
0.13442123111667226,-0.0018230997099740458,0.010203293557542627,0.009560399945066666,-0.046602308943231155,-0.20421575060274055,-88.67672038948449,-45.2322412109375,43.812209795106135
0.12431023954123407,-0.005198761602483276,0.0183096055504142,0.19706183050019832,-0.16075060274056205,-2.275497833185827,-86.49809447474449,-45.3008447265625,47.090799471227136
0.12329307489807377,-0.00665529582907715,0.02037927640614031,0.42911437926525503,-0.30398170804318303,-5.2733043153172385,-83.77928962329827,-45.30032169117647,51.06338687818877
0.12178264717551195,-0.007148301216617649,0.01937714061911879,0.7078778543609775,-0.40038651692251337,-8.16824129459517,-84.43820141989087,-47.892479834618506,57.01854626885776
0.1222377660451063,-0.005368822501191756,0.011648860705893107,0.9429778990503194,-0.43033417052598655,-10.76544122135075,-85.40480187821062,-48.95713014240506,53.68932078709112
0.12856011518044516,-0.0008139896847437866,0.00872397928444722,1.046240497181128,-0.2702388073366496,-11.412158192693871,-84.90899564302885,-50.28536250673491,50.68383037860577
0.12332398449659712,0.0029265944858847506,0.007102217585874912,0.9670660255444925,-0.09310861537522504,-11.06447378460036,-87.34879107451319,-51.995503373579545,52.346154106987846
0.11753873008293254,0.005047077210222683,0.007812337496417043,0.9093595230129716,0.07033249916074095,-10.736267815179906,-84.48996936765491,-50.90367243840144,53.16466316344246
0.1116550023358397,0.005786715570266037,0.007797111775214729,0.8452453169923033,0.2193551438947721,-10.472687056023004,-81.10932849702381,-50.82953917305424,56.60090305494226
0.1057776283202554,0.005135337382122205,0.006296006289719462,0.7966673787652213,0.35559511093478186,-10.242574502563256,-83.85573282047194,-49.428296407063804,60.80050331589866
0.10021750175481428,0.0030265016422114707,0.0061788103691237896,0.7831634469639173,0.47072161015656006,-10.031510239928771,-82.30362955729167,-50.85506028395433,65.36259136777936
0.0897585888241218,0.006460990630817541,-0.004047287566701592,0.6593939224139441,0.5518157797860653,-9.556069750053409,-82.2430224609375,-50.7783837890625,58.56980476531375
0.07844058076125127,0.005736542252876318,-0.006539355118879519,0.45750068666646315,0.46489791558580296,-7.481572542497023,-82.2519091796875,-51.55266418457031,52.97277952892946
0.07462610797448649,0.002376483513721602,-0.006056724143192766,0.29421207664371524,0.35904828028199115,-5.00729735709708,-82.2888232421875,-52.71412252723624,55.314862271012935
0.07188613484274285,-0.0006919746148072404,-0.006210376178057572,0.12860881374553665,0.19527451399273654,-2.5587958159123505,-82.2888232421875,-53.99658203125,50.22354591498941
0.07246899868770404,-0.008267889034699499,-0.00311649769585248,0.017642954555473208,0.021127506332590654,-0.4540272988067262,-82.2888232421875,-55.96532093394887,47.927179205907535
0.08147330276533439,-0.01191404980935366,0.006658158667484664,-0.038475799420387605,-0.019667956660586405,-0.013223805520306097,-82.2888232421875,-55.2188134765625,46.021380925582626
0.08141305845132324,-0.012152169290674742,0.006744705886342272,-0.02100967496590598,-0.02072660937906454,-0.011359855801926552,-82.2888232421875,-55.2081201171875,45.18300343983209
0.08128921821751553,-0.011956425437412361,0.0066128673665577994,-0.02029212430301936,-0.010913551403637008,-0.02099258234132601,-82.2888232421875,-55.1946923828125,46.1207568359375
0.08149336521619963,-0.012064275435881995,0.00672203497421185,-0.02350393084160252,-0.03486895768192494,-0.003074063007923955,-82.2888232421875,-55.23233092064951,46.20694833431604
0.08154452740292864,-0.01217238927107399,0.006719178441724895,-0.022796563615832936,-0.02366639765165717,0.001291481748592807,-82.2888232421875,-54.40859662224265,46.0720751953125
0.08149530164554601,-0.012098112312809968,0.006701079577312643,-0.022796563615832936,-0.024076509903256285,0.0006862849818414958,-82.2888232421875,-55.39127458844866,46.0718798828125
0.08167832687893621,-0.012073730277413198,0.0067494039735099196,-0.022856074709311135,-0.02402615436262089,0.0006618701742606979,-82.2888232421875,-55.2032861328125,46.0718798828125
0.0803763689077425,-0.012635889855603172,0.006923047253691249,-0.024084305995222398,-0.024144413586840375,0.0004926345671787334,-82.2888232421875,-55.2001123046875,46.0718798828125
0.0698197306858917,-0.019615146946623082,0.00837253435875524,-0.02130135861223353,-0.024177220984527077,0.00046121097445601814,-82.2888232421875,-55.385701497395836,46.0718798828125
0.06851366943113493,-0.02032886219630132,0.007290891532857516,-0.006211250296381646,-0.01621057390057066,0.00042992950224312004,-82.39264385516827,-57.23453323929398,46.1016162109375
0.06925261085848565,-0.01941761240456483,0.006599575679686753,-0.025492580480830793,-0.03824532789364018,0.008303969049536201,-82.3004443359375,-59.14357666015625,48.627616825810186
0.07289253493782435,-0.017369442308695658,0.004752374541574547,-0.047704200766369345,-0.05610364288150706,0.013091235887197123,-82.22597562349759,-60.64946477770229,52.084294219192635
0.09241798828767421,-0.005720716574602443,0.0036776033504900326,-0.08063830233238467,-0.08442144261213846,0.0171941945833626,-82.3055224609375,-62.152892495984226,47.450640667925825
0.09520054303257501,-0.003409412847353407,0.006001514735353634,-0.0449668438193478,-0.06173917129253738,0.03311577015868015,-83.00455375339673,-63.64025348165761,42.28807576497396
0.09464542352344095,-0.0034628902955958093,0.007582843546334961,-0.04372585486028305,-0.046836067365179555,0.01218207208900264,-80.93611047623006,-65.69022590069731,39.3371630859375
0.09365646564641447,-0.004944903510645826,0.008925622904577322,-0.021417679477775627,-0.034577926214083655,-0.0021107003255582293,-77.92096056909618,-67.8138266509434,39.3275439453125
0.08402019682832369,-0.010200849491687244,0.007310467738442372,0.007106657719754154,-0.00937326214043257,-0.013111995017570703,-80.45989583333333,-68.2652490234375,39.2869189453125
0.0821934849564692,-0.011327080429836205,0.006384413114295744,-0.023468863102759887,-0.01832872905022526,-0.025355252960920723,-82.58008117675782,-68.2925439453125,38.90584455217634
0.08213969005037373,-0.011223557295046562,0.006628839273372224,-0.02002111461974229,-0.007820913026607746,-0.02438390758995325,-81.5717103247549,-68.2764306640625,39.2515673828125
0.08260915189062164,-0.011026359447004561,0.006813749198889108,-0.02192678609576701,-0.013416771706001904,-0.024447233497115944,-81.473974609375,-68.2588037109375,39.3459521484375
0.08280231341010072,-0.010912212609889034,0.007010041574085629,-0.02173757133701583,-0.01312646870326848,-0.02441518906216615,-81.5839404296875,-68.2588037109375,39.3447314453125
0.08258213690603347,-0.011049333780938093,0.006894647663808081,-0.02148426770836505,-0.01316080202642898,-0.024450285348063545,-81.5807666015625,-68.2588037109375,39.309043734681374
0.08250748387517713,-0.011138127291151191,0.006617658179130063,-0.02490937554474239,-0.01316080202642898,-0.023193882613998885,-81.5801318359375,-68.2588037109375,40.16347514719203
0.08214596823561723,-0.011464860889742483,0.004395657826471744,-0.006823346887924881,-0.013123416852320885,-0.024178655941366835,-81.5801318359375,-69.00503244707662,37.18677209924768
0.07969138706625563,-0.013414397675327289,-0.010308759151314085,-0.02507412376962553,-0.015063161008764658,-0.036649015456821865,-81.5801318359375,-68.53695618872548,33.701934814453125
0.08034316807261248,-0.013262853480635954,-0.01282578877192458,-0.04001243629261141,-0.007784420770428005,-0.047999893185216774,-81.5801318359375,-68.26183461334746,31.40393829345703
0.0819044579164714,-0.012066040902864145,-0.012411478883371243,-0.06218662172584941,-0.029959801918313003,-0.056152150028992515,-81.5801318359375,-73.25303616627725,29.80577674278846
0.08405804620502332,-0.01005317491234899,-0.008860728171636025,-0.08980999684642063,-0.012446488568043746,-0.06069495732495085,-81.5801318359375,-76.26535716337317,28.88783013642724
0.0884542960575859,-0.006266669150424101,0.007821592455824445,-0.12333730939729835,-0.013922657054466447,-0.08239515504790013,-81.5801318359375,-83.27201185313933,27.444771902901785
0.08501244377263827,-0.009355429930998204,0.024415323206957832,-0.07739327105014186,-0.010460397942289463,-0.0657756653466931,-81.5801318359375,-77.85224096814572,23.52111328125
0.08395284524063844,-0.010852355639970102,0.026476821192052965,-0.05054977823216438,0.008669231736565919,-0.05773249269799777,-81.5801318359375,-72.658056640625,27.232538132440474
0.08263249790409641,-0.01247294593975163,0.025822796454621138,-0.035562231153450925,-0.011954468018781918,-0.0475672052792326,-81.5801318359375,-69.30887791367827,28.3622607421875
0.08145815054017759,-0.013603915524765723,0.022473111098744114,-0.0127775802183444,-0.014685964537491937,-0.03460885115532243,-81.5801318359375,-68.28530996817129,28.3812548828125
0.08393945305497683,-0.011341850904001801,0.007633032434171311,-0.01972836857585368,-0.014854581724450752,-0.02989273607650582,-81.5801318359375,-68.6518701171875,28.3434619140625
0.08425464883667624,-0.011292444109287722,0.006901098345093644,-0.017559587389751812,-0.013693350016785129,-0.023563468326873536,-81.5801318359375,-68.7250634765625,28.3593310546875
0.0842401734887503,-0.011231723521084726,0.006692241673843476,-0.01739136158629221,-0.013659779656361533,-0.01496397101358824,-81.5801318359375,-68.97205059344952,28.2883349609375
0.08434814371166109,-0.011225218054750161,0.006838505813776036,-0.01743903927732162,-0.013695638904995828,-0.0005016479995116855,-81.5801318359375,-67.56597793311404,29.25582627118644
0.08421030005678831,-0.011223821021034112,0.006866018561011964,-0.018130929100807266,-0.01368037965025783,-0.019338244270149792,-81.5801318359375,-63.95143146756329,31.253398944805195
0.08420689906120368,-0.011153152371288126,0.006838896450697332,-0.0176931058687093,-0.013662831507309132,-0.022567293313394517,-81.5801318359375,-61.38918330751616,35.20779947916667
0.08422026532676971,-0.010998235376184174,0.006867646773222475,-0.017579424420911215,-0.014340888538372155,-0.022916857407350832,-81.5801318359375,-59.42512843919837,35.90701593137255
0.08409092781087517,-0.011286353296351113,0.0055689162256569525,-0.0051248080928024626,-0.013797732295225238,-0.022335310254558222,-81.5781298828125,-57.95290826291454,38.1990771484375
0.08185628720856232,-0.013054428671703616,-0.010007069196558553,0.011050190655910555,-0.006728878734443911,-0.03345187679857241,-81.5575732421875,-55.53803390753074,43.75302897135417
0.08239575426496165,-0.012523185390370587,-0.012390457400648702,-0.02210875270851762,-0.023464572172113247,-0.03969675042123569,-81.5903857421875,-55.6866616303066,39.74619838169643
0.0834804716753018,-0.011447118465811005,-0.012576391718832285,-0.037280087912381306,-0.02100876585495252,-0.0563547465557468,-81.82541725852273,-52.296937144886364,38.393310546875
0.08514943780545749,-0.010023708226496945,-0.011078979867956504,-0.06152651797279006,-0.04027915240195821,-0.067325739310892,-80.92468527088995,-51.7050439453125,38.1670947265625
0.08910004870066368,-0.007183741505012214,0.005465321365556354,-0.10217861408512437,-0.06982564442140879,-0.08727630264277023,-84.38785749162946,-51.51717267717634,38.1675341796875
0.08647024501841845,-0.009602935765447353,0.02291905026398509,-0.08501121555223236,-0.051797807914359686,-0.07333956868370074,-87.86431313500616,-51.7378076171875,38.2039599609375
0.0855896139408551,-0.010606095156712493,0.026158408905770557,-0.07088040209946649,-0.0358130579263333,-0.06197508163701279,-84.36138791454081,-51.81049992487981,38.2039599609375
0.08485829104408424,-0.011481916586331136,0.026521651865189552,-0.040768719460836954,-0.019875044971817617,-0.05871526465416654,-82.36087091619318,-48.979007605350375,38.2039599609375
0.08385149006622512,-0.012244960337675519,0.024163510932092177,-0.018709249458647177,-0.008493191539830528,-0.03855342791264966,-82.52329363141742,-44.62142841467696,38.2039599609375
0.0856547590224582,-0.01057626829838959,0.00854691553239539,0.009193379732175976,0.011383305587742162,-0.030599914875157445,-82.4639697265625,-41.14675653176229,38.2039599609375
0.08593063261699384,-0.010199480281086732,0.007157692800683629,-0.005672029546704343,-0.006928097995330242,-0.023425499231950773,-82.28788325471699,-38.66970518213758,38.2039599609375
0.08578480880729628,-0.010319136084336987,0.006549677593746305,-0.004677809313570854,-0.015024992939908147,-0.020807011118910233,-80.20552502648304,-36.863063035813056,38.2039599609375
0.08580384166997279,-0.010317524338511259,0.006636945942329383,-0.010571524762679918,-0.027739786882356995,-0.013234074873273343,-77.77931952722294,-33.602737138856135,38.2039599609375
0.08580768700216676,-0.010308029185085325,0.006820854359038292,-0.005754264961699212,-0.01711902293131024,0.0008339368802788722,-72.54246327574823,-32.36142025353774,38.2039599609375
0.08580020386364323,-0.010319111301004016,0.006567916501358051,0.0016355724671255724,-0.011318247016815655,-0.0182352181419459,-73.36250624545785,-32.4602685546875,38.2039599609375
0.08563732521421295,-0.010364356785420619,0.006538068848560549,-0.004512337694350035,-0.011594439527573424,-0.0206163975951414,-66.10409744064529,-32.55589384191177,38.2039599609375
0.0857160946295746,-0.01023218244202767,0.0065513144322031066,-0.0042664876247443554,-0.011952164497026654,-0.020568054181723902,-76.700927734375,-32.5387353515625,38.2039599609375
0.08600279450567846,-0.009971659910327108,0.006557740454770979,-0.0032174547345107268,-0.009552622329235743,-0.02053933835871451,-70.28227600870254,-31.86233819699755,38.2039599609375
0.09600846217230745,-0.004516696317492977,0.006113655851628827,-0.021350629660620433,-0.010944634688179713,-0.020520458629857075,-61.29995808559181,-30.106747159090908,38.2039599609375
0.10250685584443323,-0.0007240187712308683,0.006517273764273863,0.00037003692739647533,-0.00416820415218189,-0.039109793182785665,-56.32292242809734,-30.0612939453125,38.2039599609375
0.10199150608844264,6.950673765456262e-05,0.00661038260382886,0.01498067382215136,0.007790034131507179,-0.0598624378185369,-50.54822978035348,-29.9219384765625,38.2039599609375
0.09782887905514691,-0.004136732688375459,0.007942727881282407,0.038079902806412914,0.018399284165846533,-0.07102000488296145,-41.65692200323548,-27.692463162579113,38.2039599609375
0.07647021942808309,-0.016773861366149292,0.006867030061524479,0.08055657283920467,0.03858527772395157,-0.09066958814468339,-32.098293728298614,-24.836844308035715,38.2039599609375
0.06807132342129131,-0.020453451782142192,0.005917422671567268,0.03603960947663591,0.019810678828024952,-0.06784810698472933,-28.16903097587719,-16.354869297572545,38.2039599609375
0.06824626239814441,-0.021316126590777258,0.006096086694762167,0.017426619502460185,0.01091507955457334,-0.03849471266823323,-13.95426648728391,-24.18589083002417,38.2039599609375
0.07181455977050077,-0.01938531815546124,0.005663919450930757,0.002759852863107156,0.001286885368857561,-0.020306363816901266,-25.33639596254771,-27.0944677734375,38.2039599609375
0.08386978111047873,-0.01127003460434569,0.00674609007029428,-0.02529529592390083,-0.013406225155217616,-0.010918378246406398,-28.57254806219363,-29.1468898967161,38.2039599609375
0.08446234126504966,-0.011074965892739822,0.006512055674974402,-0.00544407973614564,-0.00765524111802375,-0.01122280037842947,-28.7637744140625,-30.235903033088235,38.2633837890625
0.08427300885523299,-0.011118674704278271,0.0064924798644763965,-0.01191283831211192,-0.009453566087832233,-0.011271629993591065,-28.7612353515625,-29.4766259765625,38.2478076171875
0.08435932737205112,-0.011080780053102148,0.0070648149561041975,-0.004070181800556105,-0.009426862392040734,-0.011305200354014664,-28.7274462890625,-29.42041015625,38.2511279296875
0.0843527597888119,-0.01107122550596162,0.0067486454868210645,-0.004447309793389637,-0.009452803125095334,-0.011280785546433867,-28.7274462890625,-29.4784326171875,37.172310071113785
0.08441187453404768,-0.011124943313207127,0.00681602503456806,-0.004550309762871127,-0.009403973509933737,-0.011384548478652258,-28.7274462890625,-29.5062646484375,38.1751025390625
0.08437772699338222,-0.010900276783634992,0.006849533575446817,-0.004573198644978124,-0.009265114291817948,-0.01413011090688865,-28.7157275390625,-29.5116845703125,38.31322806222098
0.08405709778365189,-0.011578514127438938,0.008751113010040577,-0.0027349035106458363,-0.013633980616386652,-0.005794663060084681,-28.6932177734375,-29.5043603515625,39.17229285606971
0.08185287304022609,-0.01368287889819456,0.02264940946684163,-0.009444540613882259,-0.032078257009267815,0.007684054236653125,-28.7217822265625,-29.4803369140625,41.713448660714285
0.08262688924832905,-0.01296718302787891,0.02447246869771969,0.002363032538208801,-0.0141332694085414,0.031792219481115255,-29.09954155815972,-29.4854638671875,44.30008687601461
0.08385567005648177,-0.011696444819709028,0.0250677668126931,0.009442385590644479,0.003437251645177561,0.05875554843456995,-28.7396533203125,-29.4854638671875,47.84173029119318
0.08532513011449129,-0.009980929322522949,0.021725996276741835,0.02042648010755361,0.014493765306320572,0.08530198694374112,-24.546163624730603,-29.4854638671875,52.662225519569176
0.08868339748057195,-0.00681573052929836,0.007342948228870027,0.0446455873526509,0.029197487182225933,0.06502301373055483,-28.7891650390625,-29.4854638671875,49.2728320876987
0.08542911358091618,-0.010297543729502666,-0.007980379039887617,0.06873717798733814,0.05517035753236967,0.04325731681264684,-28.8121142578125,-29.4854638671875,47.092406348358814
0.08339855388330754,-0.011968276308600728,-0.011622103466466615,0.03184127582953529,0.027625225217962568,0.024295739153675437,-28.8121142578125,-29.4854638671875,45.07756826810748
0.08187643910031434,-0.013178158513138173,-0.011988191371400003,0.008827788175149827,0.016337489195671694,0.009152074630322077,-28.8121142578125,-29.4854638671875,42.69368683345734
0.08089803235227376,-0.014363559127643125,-0.009749060059828167,-0.010644705287012335,-0.0018263162756860622,0.0006964578183334923,-28.8121142578125,-29.4854638671875,45.39320256159856
0.08331642273874923,-0.012075431351387299,0.004723645683559897,-0.04385487371620292,-0.02143047360964148,0.0020730577903190542,-28.8121142578125,-29.4854638671875,45.66007915296053
0.08296954963459303,-0.012119649312405972,0.006634104870318114,-0.022628352772426957,-0.006040845503567103,0.0018787957396160704,-28.8121142578125,-29.4854638671875,45.4488330078125
0.08310906908373256,-0.01226563023414873,0.006824993185953476,-0.012249551328687233,-0.004495834223456498,0.0018711661122470724,-28.8121142578125,-29.4854638671875,44.8869514465332
0.08313945371868034,-0.012047033211917491,0.006762465895565633,-0.014961699270607556,-0.004469130527665001,0.001520966216010004,-28.8121142578125,-29.4854638671875,46.44951996245941
0.08313752494888145,-0.012038255561998305,0.006744923856318834,-0.014961699270607556,-0.004347056489761011,0.00027998230927059006,-28.8121142578125,-29.4854638671875,49.25532953789894
0.08313746391186251,-0.01202374095889152,0.006728529313028334,-0.015037232581560646,-0.004295937986388717,-0.01703507496206702,-28.8121142578125,-29.4854638671875,52.18984583804482
0.0832294779978501,-0.012046550159944686,0.006668368365413603,-0.01520355845820483,-0.004295937986388717,-0.009092680850176112,-28.8121142578125,-29.4854638671875,55.94912493940185
0.08316121013669296,-0.011981817657340634,0.006721238548826902,-0.014834284493545267,-0.004295937986388717,-0.008155677021561824,-28.8121142578125,-29.4854638671875,60.92570055945445
0.08291350062562937,-0.011824933764188405,0.006982426549019046,-0.014860225226599862,-0.004295937986388717,0.8081900234992523,-28.8121142578125,-29.4854638671875,54.6346989199112
0.08223733135055501,-0.011414380777165185,0.007623745269974692,-0.014675139442660136,-0.004295937986388717,7.016718420972319,-28.8121142578125,-29.4854638671875,48.17678901844455
0.08358385917921958,-0.010429967500779366,0.006786128434783002,-0.0032092120120853092,-0.0011012701028570505,12.026898251289404,-28.8121142578125,-29.4854638671875,42.56463700306566
0.08456134769737839,-0.008864611346781775,0.006460540177617704,-0.015820795312356875,-0.004355449079866911,12.356065935239723,-28.8121142578125,-29.4854638671875,39.14402011814963
0.08556452772606582,-0.007384439222388335,0.005980422986541313,-0.015647602771080592,-0.004355449079866911,11.596675389873958,-28.8121142578125,-29.4854638671875,37.00965848415018
0.08678158229752057,-0.006159134072507241,0.005786030074697902,-0.01563310647907949,-0.004355449079866911,5.491065324869533,-28.8121142578125,-29.4854638671875,33.62130245085685
0.08627295444517608,-0.00546964740464293,0.006432270171859218,-0.017384442561472275,-0.004220404675435623,0.3543156987212744,-28.8121142578125,-29.4854638671875,31.602767349837663
0.08585139219035105,-0.005548401920050174,0.006405797134830178,-0.015705587939084983,-0.0045355082857752955,-0.0017254914732650832,-28.8121142578125,-29.4854638671875,29.0562006632487
0.08591848087237458,-0.005349861286108071,0.006412296517838046,-0.015814691610461677,-0.0052878262796015145,-0.005282170548202155,-28.8041064453125,-29.4854638671875,30.909313571068548
0.08596188238166447,-0.005445569639947357,0.006419852900784301,-0.015775017548142877,-0.016003047234702406,-0.0049887492341027535,-28.8074267578125,-29.4854638671875,30.3068896484375
0.08592404847243552,-0.005431716562510205,0.006418534501174941,-0.011727732434939124,-0.002925656910916454,-0.013556000661769745,-28.8024951171875,-29.4854638671875,30.3127490234375
0.08574041344257105,-0.005487346589992487,0.006421549729911168,-0.015091743544245225,-0.0028089236121707647,-0.007441343683418543,-29.10845947265625,-29.4854638671875,30.3419482421875
0.0806732163457136,0.002505572069460108,0.006621531747466328,-0.024221179046961062,-0.0018706811783041216,0.6292332987456892,-33.63106346130371,-29.4854638671875,30.5447802734375
0.07723074744832735,0.012411284872846757,0.007101627716856269,-0.06077570421460603,0.014978230129907089,3.5530491805780207,-29.0642626953125,-29.4876611328125,30.473403033088236
0.07991888971401889,0.01342264107181,0.006538936232472029,-0.031161997278822032,0.04660996403664611,7.153973891415144,-29.0182666015625,-29.4909814453125,27.854251437717014
0.0832581740237218,0.014605246292402608,0.006412383706872042,-0.018904309213537952,0.011970441758973296,10.869795449690237,-29.0182666015625,-29.565565842848557,26.361993698846724
0.0924441444135868,0.0070732773827325976,0.006403104342783877,-0.021167217227593297,-0.008174964068088241,14.008706549272134,-29.0182666015625,-29.4996728515625,22.362242542613636
0.09399151815764936,-0.014161989806817786,0.00627706393158221,-0.008003819718444894,-0.03704135535474981,13.603464995269634,-29.0182666015625,-28.803776438643293,20.95959712009804
0.09287015839106413,-0.018365960209412415,0.006414176458021773,-0.005813588441389659,-0.06384787319161235,10.302944654683063,-29.0182666015625,-31.18402029454023,20.751529333726417
0.09158628477136897,-0.017253675236383756,0.006421244544816415,-0.008163354483585128,-0.037573743595171245,6.598000656147954,-29.0182666015625,-33.79604368571994,20.9551318359375
0.0904095640313542,-0.015406454228775415,0.006544098519561626,0.016744427730995746,-0.02847948027520108,2.7984218115787236,-29.0182666015625,-32.3294556595897,20.9551318359375
0.0919525551052683,-0.0022857972960600393,0.0064703379508762844,-0.008525068181124522,-0.021294354644736044,0.2820295571764275,-29.0182666015625,-31.42409148929626,20.9551318359375
0.09242544365352703,0.0031504487326635615,0.006465606250190723,-0.008961760307626512,-0.015990560215068898,0.008710751036453399,-29.0182666015625,-34.88448539892465,20.9551318359375
0.092310926029467,0.003235931554025929,0.006465069124423946,-0.010267940207348605,-0.017356250622606324,-0.00649337389303078,-29.0182666015625,-37.057501715582774,20.9454638671875
0.09230225062269495,0.0029044072586344965,0.006465069124423946,-0.009141056550797994,-0.017225104525894902,-0.012878646920862831,-29.0182666015625,-40.809196920955884,21.133097330729168
0.09230258735923334,0.0031664564958646885,0.006458232978301325,-0.009080019531846,-0.017225104525894902,-0.009699949195657696,-29.0182666015625,-49.34463892227564,21.0305712890625
0.0922305540141081,0.003139270607623473,0.00645915385417103,-0.009038056581316505,-0.017225104525894902,-0.009504795295601628,-29.0182666015625,-74.2214501953125,18.76148681640625
0.09229084254694805,0.0031631331710374124,0.00645958800012206,-0.008944212164677817,-0.017225104525894902,-0.007306204329364071,-29.0182666015625,-96.22121853298611,17.2864794921875
0.09243007722481549,0.003158729209265364,0.006330986459954596,-0.016651473346979927,-0.017225104525894902,-0.009152119510483048,-29.0182666015625,-108.29795562243852,16.80335920948093
0.0911951683095797,0.0031161765990382955,0.006775120488814784,-0.010167534879134901,-0.017225104525894902,-0.008928967305463158,-29.0182666015625,-114.70114556044162,17.4267138671875
0.07665201208532971,0.0035487205980117183,0.007204040851599542,0.009366870400837482,-0.017225104525894902,0.0004342832340512996,-29.0182666015625,-118.74488397854478,17.4137255859375
0.07477748367846634,0.0030868582642830035,0.00793089985212393,-0.028285048264125073,-0.01766365818412722,-0.010679952391125166,-29.0182666015625,-111.47493614783654,17.4137255859375
0.07622534551688352,0.002347239045935859,0.0062916268716976705,-0.04565370217459417,-0.014616645632831165,-0.017299450756589695,-29.0182666015625,-109.8872705078125,17.4065966796875
0.09047372295297093,0.0028723679311501975,0.006446879542246278,-0.040642343777929836,-0.008702868276520651,-0.015508448212550537,-29.0182666015625,-109.8872705078125,17.800071433738427
0.10830705526902061,0.002715559972630601,0.006258153630176685,-0.0819791118754701,-0.0014448086628176225,-0.023326289142730997,-29.0284228515625,-109.9355126953125,17.3003955078125
0.10976538834803304,0.003075363880607342,0.0053861719604850426,-0.033755794788035136,-0.011931974242377966,-0.013971818699707985,-28.60468207465278,-109.9663720703125,15.755650674143146
0.10864695970248806,0.0038084170049134318,0.007374512560235092,0.013899636224411413,-0.016920224616229693,-0.012230034041069572,-29.397576800847457,-109.42375710227273,10.47683376736111
0.09604266731772813,0.003283741335233758,0.006694232279150012,-0.005016641184427615,-0.017885653569942754,-0.013870217495244143,-20.40702470321229,-98.90762223868535,15.28018482349537
0.09251177372721413,0.0030859647722497074,0.006476533446106484,-0.007412876591470848,-0.016990049835595607,-0.012993636890774197,-12.713915263596672,-79.69340724571079,19.192751862281977
0.0927290820187528,0.0030578494132552925,0.006561373332926397,-0.006693472090823022,-0.017087008270516017,-0.013137073885311386,3.889733585310571,-57.809396297373674,25.92540588378906
0.09282849317774149,0.0031018182927945322,0.006564030180458266,-0.006763664662617816,-0.017122104556413414,-0.013137073885311386,31.55701349431818,-49.602077782978114,37.24607195172991
0.0927053096102786,0.003098912930692416,0.006562032532731074,-0.005845001011632018,-0.017041230506302022,-0.013085192419202191,52.8011181640625,-44.7278114975683,39.81133656442901
0.0926516422349043,0.003103817386813681,0.006824827360156118,-0.011019756920071958,-0.017084719382305318,-0.013185903500472985,53.538827933517155,-41.158060561131386,42.54366801697531
0.09223128670395732,0.0030992850889554223,0.006662709433271276,0.008206749751447785,-0.017084719382305318,-0.011280907117419406,53.3612744140625,-35.88689963151569,40.684956868489586
0.08350411328470711,0.0030348464862457116,0.0040938348796044485,-0.025144774656478432,-0.017038941618091323,-0.003756498793905409,53.3616650390625,-37.72533017113095,41.34331145109954
0.09186863254977934,0.0030914379756507055,0.005620094094314552,-0.09793977547382485,-0.01769948473749323,-0.01360714121153689,53.3598095703125,-38.7929833984375,40.9356982421875
0.09326514114810629,0.0031431369918307832,0.00665750977968137,-0.10155512749855328,-0.014890892606853837,-0.013213127398130547,49.66721099277712,-38.8680810546875,39.99000767299107
0.09409881893368324,0.0031191520402221494,0.00694438689152879,-0.11870424607837146,-0.008462642475139741,-0.013406208990752832,55.347144033394606,-39.08295454545455,40.8892138671875
0.10303280620088237,0.0031904915872016377,0.009121966325517596,-0.07784627707873651,-0.014780404791696592,-0.0161930932146932,55.3965771484375,-40.61612323649879,40.8892138671875
0.09496520057596745,0.003136635576373566,0.00726275406163707,-0.014061193635918158,-0.018335864574413347,-0.009050422935677104,55.4191357421875,-37.631968470982144,40.8892138671875
0.0938556103919884,0.0028856450933288915,0.006272687774448188,0.0013982536114675258,-0.01825128940702531,-0.01340716269417396,55.4191357421875,-34.91780456809498,40.8892138671875
0.09427581082593256,0.003121495097224179,0.007176236688522453,-0.014637888909035033,-0.018203985717337515,-0.013645970030823636,55.4191357421875,-33.3266791801948,41.6985649496822
0.09412691061128572,0.003082017883846504,0.0068202808574829,-0.014275752583564508,-0.018191778313547114,-0.013648258919034335,55.3890576171875,-31.34151349748884,45.121811375473484
0.09411737777785753,0.0030859885932582316,0.006815325378175197,-0.014313180944242623,-0.018258156071657407,-0.013631473738822534,55.4243603515625,-29.6883935546875,47.987708920338115
0.09414767085083252,0.003016504230403925,0.006697370920168939,-0.017966500849431764,-0.01822687459944451,-0.014147100305621019,55.4777294921875,-29.7133935546875,47.1194873046875
0.09386263982200438,0.0031531450595619105,0.0056500998391238325,0.0075695440534684225,-0.017990287334758673,-0.013474422237086734,55.4517529296875,-29.7245751953125,47.0852099609375
0.09118444703877077,0.0035231806245249147,-0.00962279582944406,-0.027896268650890163,-0.019148700050216776,-0.024829313540706204,55.162520797164355,-29.7656884765625,46.77147549715909
0.09290824892704828,0.0031527463137161434,-0.012239090569834035,-0.06464636915570533,-0.018643966879637933,-0.03074018232419402,55.41664006159856,-28.88880254181338,47.132802925857845
0.09498400411221951,0.0028346954034764353,-0.012008588945044137,-0.07857895347842181,-0.018828533141714034,-0.047822429548619226,55.3936962890625,-29.8208154296875,48.355815089026166
0.09622493218607668,0.002581046261700525,-0.010804984302344377,-0.09760963774529244,-0.027536005523655805,-0.060217978453932244,55.3779248046875,-29.8208154296875,51.28184182303293
0.10072468783086165,0.00231973253750225,0.005778024231696523,-0.12960000406913455,-0.018629173593784572,-0.07358017525449696,55.3025218822338,-29.8208154296875,46.3660779896349
0.09720467121001192,0.002753584195481172,0.022916192651612412,-0.08021502637503486,-0.017109214974175904,-0.0624508582637187,55.49673043045343,-29.8208154296875,49.367362380873224
0.09593457075716419,0.0030378788786031147,0.025689313154635164,-0.04143903606484693,-0.017361674855799994,-0.049336583822298705,60.31678416630993,-29.8208154296875,52.88402506510417
0.09441805810125795,0.0033419192073325292,0.025744715720084202,-0.022131357508754498,-0.017215186010315207,-0.034890398158836225,67.93074391682943,-29.8208154296875,57.5412353515625
0.09298893811491034,0.0035656583332469476,0.022209900439231767,-0.005954806782621318,-0.017350993377483394,-0.0229756691183202,77.48230446385973,-29.8208154296875,52.2483100395698
0.09567850137472007,0.003254914066919998,0.007357001709036508,0.011441164226359676,-0.01735786004211549,-0.016727344911474477,74.2007513115876,-29.8208154296875,48.70655235877404
0.09573662770470286,0.0032616145368636203,0.006508401266937009,-0.004346471551662734,-0.017447889645069686,-0.016612369151890575,71.95293125537557,-29.8208154296875,46.51741661658654
0.0957052266393115,0.003121445184673467,0.006454058046205,-0.008904330021612592,-0.01670284381644129,-0.016694284939585045,94.21601104736328,-29.8208154296875,47.1185107421875
0.09584477208956642,0.00320435253785338,0.006506488845484766,-0.00789742728965112,-0.009909013225612193,-0.016388583543843822,80.79911364539196,-29.8208154296875,47.1185107421875
0.09606541106370202,0.003219595324564302,0.006758215880920261,-0.00789742728965112,-0.01741431928464609,-0.010194645988838687,65.357861328125,-29.8208154296875,47.923611111111114
0.09588298782521941,0.0032147856074708843,0.006515839716788212,-0.007017276410835426,-0.01738919237851085,-0.0011458495630231238,61.2945263671875,-29.8208154296875,47.0962451171875
0.09591825108595027,0.0032413739950228468,0.0065058662678914555,-0.007486953337198962,-0.017883023749982747,-0.013071018919128251,61.2332470703125,-29.8208154296875,47.0962451171875
0.09601487240039248,0.003333837653952997,0.00655106685666393,-0.007406842249824472,-0.017959320023672738,-0.01846721384558945,61.21924280237268,-29.8208154296875,47.1045947265625
0.10412391979735705,0.0037187015310924188,0.00593606766051994,-0.02580498672444831,-0.01721715584138138,-0.01854800561540569,52.199666341145836,-29.7989892578125,45.348093133223685
0.11508757001799552,0.004099934465516433,0.0061791894283883,-0.005034701817929135,-0.020692653712897868,-0.01820391690109065,37.996866861979164,-29.984464205228367,46.9077197265625
0.11494135751025301,0.003343783379619684,0.006850518887324184,0.008045535104845942,-0.028554822641498303,-0.02078834097193667,29.83316443101415,-29.8943505859375,46.9297412109375
0.10968215826899011,0.002950488078162204,0.00858125908014374,0.024659232092379958,-0.03346814075691451,-0.023045663469403944,26.0784619140625,-29.7839990234375,46.9249560546875
0.08554945158238465,0.0025020922372516975,0.007660446854120456,0.07119642267580745,-0.04682522333516203,-0.02485026149841355,26.0784619140625,-28.31457331730769,46.9190966796875
0.0761343597533413,0.0029500165710151806,0.006930197126095415,0.01741317747144675,-0.030880602614897626,-0.036405511345069724,25.9854931640625,-25.188363211495535,46.9043017578125
0.0758275118259224,0.0036987207976011947,0.006985812348019248,0.02056046992500949,-0.025391030708511737,-0.024658123333619976,25.185772589917452,-20.69946404223172,46.9043017578125
0.07934504113782047,0.004351131146754744,0.005285554346118297,-0.008549774558640142,-0.022311406868265545,-0.022071573909576116,21.08497032752404,-25.156793409778224,46.9043017578125
0.09360285897396764,0.003932415452829237,0.006339388312695844,-0.007188604986963759,-0.015350927046437302,-0.01585077094450086,10.966131647792432,-27.8676416015625,46.79000555300245
0.09505053230625952,0.0037662147685791295,0.006828451814234269,-0.0010286842418202333,0.001629482663257673,-0.016639768490177474,20.06347936871408,-27.8676416015625,46.8373583984375
0.09480001709036527,0.0038059593788793713,0.006573518801417193,-0.006495502021976265,-0.009935374595014413,-0.016428607332700178,24.503524780273438,-27.8676416015625,48.419983944650426
0.09493880473692477,0.0035534335252491085,0.006617248157303685,-0.024041287562645803,-0.013102594701627682,-0.016460539567247478,33.2945321890024,-27.8676416015625,50.37564192147091
0.09494230758362351,0.0037448643217495537,0.006994834797961871,-0.00994838155525531,-0.011706782856109878,-0.009526811702703896,46.29974365234375,-29.26658774321934,51.56346978081597
0.09424537631196124,0.004134909763948253,0.006333708456678953,0.01718391695842598,-0.00649410500533086,-9.958796221087804e-05,59.630853697311046,-33.940089634486604,52.79394110317888
0.08311914059877312,0.008768300484047439,-0.0005378243015499466,1.8705633716849268,0.04364864040040283,-0.0325618471058579,67.03078946200284,-37.77484666255482,54.727739177766395
0.06665550340281377,0.008838187200537074,-0.0031270693075349386,5.564025543992431,0.15890484328745383,-0.05110286263618878,70.71278368737087,-40.08447609485035,51.75352294921875
0.03433259315775013,0.007587901890621615,-0.006597157402379553,9.302924436170539,0.17922558108415826,-0.06868118207658458,72.97669945693598,-43.72692347935268,53.10835597826087
-0.008972341685232078,0.0017867268898586722,-0.0026161894589067504,11.466309091463977,0.11838192249963235,-0.03378818628498179,74.346337890625,-48.7624992957482,56.882383604307435
-0.04972415906247135,-0.004031051409602943,-0.0016941276284065513,9.717988372447891,0.017564599007729543,0.019579068272868625,74.0226025390625,-42.98479669744318,55.50897731551205
-0.08553816705832082,-0.004612882880133413,-0.0050293363490994175,6.026815088351085,-0.06981460005493328,0.11660955375633662,74.0314892578125,-40.5288515625,59.21940760458669
-0.10546732749412517,-0.0037601286536215923,-0.009321612530221728,2.285861537522508,-0.07266525227907865,0.05377170628986476,73.85712807865467,-38.292937360491074,63.53784503052566
-0.11372039942224951,0.0009819437883441997,-0.01997429927691815,0.09212622455519273,-0.024387046767961097,-0.0009203909635982779,75.26401881167763,-38.811755812311745,68.4180465919384
-0.11424869761122053,0.0013513189082511314,-0.02037164058869621,0.004419080172124403,-0.014223151341288444,-0.010447870138393527,77.92229280766753,-37.24203960712139,64.26466461549322
-0.11407597230797394,0.0013320290686125126,-0.020222341990417107,-0.010711473224196692,-0.01127920512362172,-0.006393627735221367,83.03409897985537,-35.8668603515625,61.620634619869406
-0.11398616522892957,0.001418259563313988,-0.02015132343804246,-0.00935544907986688,-0.0161073641163365,-0.007412033388446126,82.26367950439453,-35.8297998046875,59.17779632112873
-0.11412572573541709,0.0013566356395153163,-0.02059693279731725,-0.009412671285134375,-0.01621417889950249,-0.007083727530747357,89.10883725234886,-35.8369775390625,58.1207080078125
-0.11407562242500069,0.0013736333242974042,-0.02033860286263612,-0.014092684713278526,-0.016373180333872434,-0.007188904188037064,86.8511734847184,-35.8374658203125,58.1624560546875
-0.11407808908652106,0.001344613835214079,-0.020358957511652308,-0.0008049676084589113,-0.015896116689216398,-0.007073046052430757,101.59409381934172,-36.28962326049805,58.1624560546875
-0.11420963196283804,0.0012569068031064647,-0.020598325072391607,-0.006692361306838435,-0.00713600971257972,-0.004239464730256828,88.82101611024845,-35.5779443359375,58.1624560546875
-0.11562336252937401,0.0027463020722067453,-0.020094440835509528,-0.036141629620587055,-0.025890886155786753,0.13012825403607292,85.05568450777402,-35.6027978515625,58.1624560546875
-0.12199715323343599,0.013755793328653778,-0.018011576324612234,-1.1184987945188756,-0.18921216467787713,3.200097277748955,81.7235899808114,-35.6103173828125,58.1624560546875
-0.11384253425702687,0.026453715018158457,-0.014337082386896145,-3.726283303323466,-0.2644028290658285,10.44885822626423,81.52202430138222,-35.6267236328125,58.1624560546875
-0.08660311655018767,0.03759496078371527,-0.009464497099843911,-6.473610644856105,0.3128714865565966,18.3114867854854,82.63713038244913,-35.6521630859375,58.2462708716299
-0.043321314737388185,0.04625143143547327,-0.003933965575121227,-8.92141407513657,1.551208838160344,25.924769203772083,81.4278013939951,-35.6277490234375,58.1635791015625
0.014713854792931884,0.03203503769035916,-0.00250706747642437,-9.493701954540985,3.0980921353801083,28.909724378963293,81.2452587890625,-35.20010166952055,56.43162841796875
0.06212084353160186,0.013196877346110369,-0.003055118869594326,-7.152437665944392,3.611771048945107,23.309878460036007,81.00804307725694,-33.82595941674618,60.12364052220395
0.09247571275978875,0.003354023255104184,-0.0010075466170231498,-4.417976928006836,3.0227434614093442,15.4617515335551,81.38450404575893,-35.808799461082174,64.34318440755209
0.10839287331766713,-0.004756175194329384,8.222977620544696e-05,-1.9628704184087646,1.780843073824274,7.701370662556841,79.74637802333048,-38.45578810747932,69.58708436547256
0.11440843775749986,0.0011976097903378246,0.0016226272606885063,-0.3514801477095858,0.41366039002655114,1.6027363658558915,74.7439404296875,-35.50898528767523,75.28791656080624
0.11671996167262741,0.008824767740621976,0.005803604886363547,-0.00668393826233756,-0.015512667361326046,0.010414343542948535,71.9839306640625,-32.77853012084961,68.48664119944853
0.11670756620739789,0.008858096806680947,0.007000120522249263,-0.018299493296772457,-0.02045133922110851,-0.005234428218450295,72.15149591619318,-31.4070458984375,64.64835185066599
0.11692077394940023,0.009008309579760078,0.006926189545279954,0.005714292348744293,-0.01584582775643899,-0.004750015259254698,71.9821728515625,-30.985288677793562,61.741179547991074
0.11683488749719802,0.008888128933216811,0.0071192795789136445,0.0349723634446147,-0.01707609507759043,-0.006270768294499977,71.9821728515625,-31.4458154296875,58.18976508246528
0.11668934473818607,0.008942921749965837,0.006747980117683304,0.011297016963368907,-0.016873378704184042,-0.012062732077539329,71.63341380931713,-31.4285791015625,57.6352587890625
0.11683909182223362,0.00912156342990086,0.0068021059951431885,0.0057248396525627155,-0.01641737459051929,0.0007096966347126662,71.9193310546875,-31.4285791015625,57.5778857421875
0.12074545976134518,0.007336517838068745,0.006519007309183001,-0.017117779837197863,-0.005615524956511106,0.0003188548437961082,71.9836865234375,-31.588627567997687,57.6033251953125
0.13253797051911978,0.0009128129782141224,0.007079863348885776,0.0025913121069833624,-0.023294024403181426,0.0032186128029506856,71.9663037109375,-28.413968599759617,58.78125393775202
0.13303876672355625,-0.0013296157719656482,0.006400059397218413,0.014092984103719636,-0.039445751499799724,0.015239492752354264,62.178813888365966,-24.956805889423077,57.37261962890625
0.13059606555375833,-0.0023923823452769817,0.008228176550094543,0.03824553019436589,-0.05569517002971388,0.02879642226694697,41.310537300857845,-22.755376906622026,57.1802783203125
0.11611133396404913,0.002733484298226852,0.006648271703815379,0.09220086335810941,-0.09178481880839673,0.04345381786553539,19.132074195218372,-20.21370849609375,57.031719855542455
0.10086611769253734,0.015803544575275042,0.005771024805789978,0.052486792985708526,-0.07121457268672154,0.02432860617683919,7.324854395411036,-18.151607513427734,57.33510933670343
0.09995266967597663,0.01975277542367903,0.006052703024384275,0.02714182714316229,-0.04365860053213177,0.011394085512863514,0.6485302734375,-15.343634927348726,57.3058154296875
0.10264315456447135,0.021272097944069705,0.005300300974313063,0.004683441534688052,-0.032787987017066984,0.0023311478689602826,-0.1280810546875,-11.774126195195896,57.3058154296875
0.11334888393810841,0.011717913754692175,0.006439196391129727,-0.022056890974203353,-0.0021853160191656284,-0.0023358822923204045,-6.4365025425816444,-16.403372099905305,57.3058154296875
0.11583405699192917,0.010368645474104994,0.006321278115176842,-0.0019035186667636515,-0.019123911974981218,-0.01228951436632519,-2.768909543059593,-18.795201398324274,57.3058154296875
0.11591814822727017,0.01027688652426951,0.006290698568681888,-0.002722042964512471,-0.015452742088076373,-0.0031207183735882816,-1.5269446739783654,-20.767919080010778,57.3058154296875
0.11606443601794482,0.010155257223207313,0.007067281687295713,-0.0011533453372803548,-0.015775475325785045,-0.0023075807977538092,-1.6871630859375,-20.525468306107953,57.3058154296875
0.11587308127803238,0.010314523758659575,0.006666147092838664,-0.0016441846980193018,-0.01570986053041165,-0.0023342844935453034,-1.6871630859375,-21.888427734375,57.3058154296875
0.11598469823733801,0.010255940427869452,0.006794062598966246,-0.0020020142216253638,-0.015727408673360352,-0.0022518845179601153,-1.6871630859375,-22.3787744140625,57.3058154296875
0.11597064004224222,0.010291401292576208,0.006886559648426743,-0.0018227179784538817,-0.01576631977294225,-0.0022755363628040133,-1.6871630859375,-22.3376123046875,57.3058154296875
0.11573180145098202,0.010587803693849361,0.007484808321961542,-0.001914273506881874,-0.008582842493972547,-0.004827927218740487,-1.6871630859375,-22.3376123046875,57.3058154296875
0.1146800474344832,0.013641879686822454,0.020721951844185644,-0.009716992207814783,-0.014853053376873029,-0.0026130006502789876,-1.6871630859375,-22.3246728515625,57.3058154296875
0.11493355084009392,0.012968916287728454,0.02280187928621565,0.005845519072749715,-0.014582964568010453,0.012053765245718266,-1.6871630859375,-22.596975226151315,57.3058154296875
0.11502510406523817,0.01155322193294844,0.023190087827483035,0.023024882512930802,-0.012951884412723859,0.03353294590476814,-1.6871630859375,-24.45225843492445,57.3058154296875
0.11558956215395337,0.009772069686190543,0.02335497901555212,0.06292341199004992,-0.031049607837153173,0.05061075167088834,-1.6714892578125,-28.04594462626689,57.3058154296875
0.1164556559953611,0.005312591326639558,0.010180954008606198,0.09684473161274197,-0.04550356611460284,0.06389225352532629,0.3824586332514045,-23.61208893531977,57.2968310546875
0.11682322807354086,0.0046172331919308585,0.0071233533738211995,0.11068612545326922,-0.043756358022807425,0.046690649128696526,-1.7028369140625,-22.833101981026786,57.37384033203125
0.11579128273990479,0.008116644184697968,-0.0076388286996062335,0.14372596667378765,-0.06935378541598748,0.029674880769732268,-1.7934992863581731,-21.949575063344593,56.32200753348214
0.11360692860219719,0.011499852900784271,-0.00986124620946233,0.08726392358552759,-0.04355196399734711,0.01650896385845511,-1.7013232421875,-16.37160500919118,53.364925130208334
0.11261103142389185,0.012962714926602937,-0.010215755338371268,0.03947325476512613,-0.026409203735095588,0.006780725357151289,-1.7013232421875,-8.5498046875,58.46395670572917
0.11188921781060214,0.015207080740810714,-0.008962110993044472,0.008452394646583915,-0.018666287959708112,0.003122747792690087,-1.7013232421875,9.690749289772727,62.01269099142699
0.11207149760139043,0.012135123561815191,0.005316691607358148,-0.015160769548015225,-0.0012493081315181171,0.0029035867465155895,-1.7013232421875,25.052369986007463,68.57419349407327
0.11310557573168123,0.011700316589379827,0.006645844294564637,-0.0020153436294406213,-0.014667300890403762,-0.00045832261552343587,-1.7013232421875,33.56150793650794,80.9194384765625
0.11314915204505265,0.011431234705820855,0.007049833218099627,-0.00207296975615706,-0.012419786206103178,-0.009373858632357249,-1.7013232421875,34.27411520070043,90.56623757102273
0.11293505031436481,0.011642723878699046,0.006851485992292029,-0.0020432142094179637,-0.01291127431532317,-0.004861362148537414,-1.7013232421875,33.8746923828125,94.59812051741804
0.11280691991416927,0.011602841927200224,0.006794557717437442,-0.0021103549302651597,-0.012751091036713715,-0.004716405311141929,-1.7013232421875,33.8641455078125,102.54165176606514
0.11419694448683121,0.013178236640522424,0.006960122637456518,-0.0025492845670157705,-0.006743028337162643,-0.15942754905850395,-1.7013232421875,33.8503271484375,93.9598089724171
0.12353305808544306,0.02707003343956677,0.007856550289417185,-0.0024613177892391256,-0.02543266125962863,-5.843435850093081,-1.8840289938038792,33.8636083984375,84.69010062839673
0.12311837777689084,0.026087322431642985,0.007041220005309557,0.0002819494114089487,-0.04332546532755692,-15.103579439680164,-3.893278775149829,35.37277590573489,76.98447963169643
0.11421335123752552,0.010232834253974983,0.006331136727282231,0.022236383105483898,-0.0841229997660247,-21.12699095126194,-6.152166958512931,37.73144155649038,71.0478003717238
0.10980042359691153,0.006269566331980303,0.006116282701929292,0.004739759279387561,-0.14389158733487448,-21.223817026276443,-9.874763820482338,41.80899815471626,66.81679593599759
0.09697419228158102,-0.008388058717612182,0.005395587595751818,-0.0053361613818780525,-0.09111106917046938,-15.540314569536427,-23.750233043323863,33.40477324695122,62.1624560546875
0.09356996002075256,-0.00816729802989144,0.006087557027865684,-0.0049208104519312,-0.0386364329966124,-6.279938276314588,-9.491573333740234,27.567222481343283,57.7324755859375
0.09317856624042475,0.007038425244910991,0.006361408194069692,-0.00606060862950411,-0.017165806535801843,-0.2562360759300515,-10.000144874656593,23.692401885986328,52.9232707473467
0.09874028138065737,0.009004137437927478,0.006656280033840507,-0.016921147706948376,-0.012190090405215329,-0.006190129313428558,-7.765655517578125,20.57145330255682,48.20638472945602
0.0991785762324108,0.008717951326368281,0.006579501327555146,-0.005386957093323192,-0.012631305887020425,-0.004472869045075801,-6.2762255859375,17.801380085495282,44.75852614182692
0.0992076463322373,0.008915202227013383,0.006579635608996838,-0.0056009094515823265,-0.012478842456411298,-0.004083645848854352,-6.2045458984375,15.912374562230603,41.47002598024764
0.09912692892239137,0.00877167068493703,0.006579440290536193,-0.006081106460298882,-0.003958124829513197,-0.0048842331207210096,-6.2518115234375,13.994150199142156,38.19151635263481
0.0991690690211305,0.009249436054153232,0.006576351817377223,-0.005813776055177407,-0.01069232435550588,-0.005970959310550619,-6.2599658203125,14.0387060546875,37.8488330078125
0.09909587694936975,0.008969628821259353,0.006632130840479735,-0.006117435224463575,-0.010892639474076274,-0.002153623190537333,-6.392135054976852,14.0455908203125,37.16064453125
0.09640152836695451,0.008196668184914473,0.006933485772328435,0.004546798295817002,-0.014463018348406055,0.8041096987823115,-5.933051215277778,12.797808329264322,32.252096737132355
0.07995258255950408,0.004002325410361331,0.006522026734214282,-0.03985376316341916,0.056109013289637036,5.922104937894833,-4.475301106770833,12.5078466796875,30.5048876953125
0.08082994720297858,0.002128743828229806,0.0059340467266124014,-0.09220105474362351,0.08964775477673358,11.427240440076906,-5.942945911038306,12.451056985294118,24.56157977764423
0.08370982649053565,0.000585148735845512,0.0054985997552970175,-0.14395432565962363,0.12831232642597729,16.73316103091525,-6.3992739076967595,11.787769755379099,18.97905555138221
0.09035452986236145,0.0006693710135196844,0.005161761972272513,-0.22439048253353888,0.1781624542353903,19.9828114967414,-6.234614534198113,10.876045735677083,12.89080810546875
0.1272034740835022,0.007290356620521061,0.006480354461741595,-0.1389564611846175,0.09904281088637115,15.338459807123023,-6.333768956801471,9.453634327855603,8.886800130208334
0.13284242222732645,0.009060483496966355,0.0071325476604263156,-0.0777032463370852,0.04556825464644301,9.82862292855617,-8.04085546875,7.6725454757462686,4.499879930840164
0.1341440721819761,0.011210730307931715,0.008092998958555824,-0.029069126392899165,0.015965512532503466,4.518274101992858,-11.746859248991935,5.590714738175675,0.4401215099897541
0.11689928525650801,0.012898593185172553,0.007043440614174346,0.0069287825149286116,-0.020422332573277097,0.37477378154850916,-7.074036679025424,3.561175311053241,-3.657295949835526
0.11427000210855144,0.0103413875824329,0.006495609200313307,-0.0064448367595963335,-0.00431563321437278,-0.008517900955414255,-4.920098996629902,1.9571377173402256,-7.632365635463169
0.11455070117486567,0.010556305632699523,0.006751358207524773,-0.0025889489288686237,-0.010233574309877716,0.001945201755605513,-4.105098470052083,0.3639780680338542,-10.419521644467213
0.11435079602445543,0.010399337575598038,0.006707079315302835,-0.012136549236229352,-0.008698207066359279,0.001338401201112785,-1.8250811176915323,-0.8755709740423387,-14.42153105345912
0.11438870301153437,0.01064279516390883,0.006803589915745413,-0.008425502223961514,-0.008876999466213946,0.0017035662317874943,0.8060369318181818,-1.7816868832236843,-9.63826895118656
0.11461966427582143,0.010325368430690004,0.007244058625004362,-0.006691856405027239,-0.0015619593765546342,-0.0008565587470661326,1.9661841299019607,-2.7869187446489727,-7.23224623426259
0.12152307922123186,0.009030353067029848,0.022076754649734256,-0.024621705122980526,-0.013860429167750495,0.010311788190446558,1.9952099609375,-3.7423980432912844,-4.496804261818911
0.12264059683106887,0.007281213637889513,0.024090111954487667,0.004865370986392144,-0.025531632435071807,0.026521685161665906,2.268700315241228,-2.8030677208533654,-2.63238525390625
0.12305417982558142,0.005830719010324999,0.023348155156102158,0.027487057184904854,-0.04523323032515991,0.05477526408982731,2.0034619140625,-2.8583154296875,-2.7516552734375
0.12266797440233705,0.004519891588220813,0.022133651351852576,0.04786098134898123,-0.06859012564649868,0.07888487669658437,2.0305126953125,-2.8507470703125,-2.7870556640625
0.11546748839709742,0.005148804589983778,0.0066360948515274305,0.0766552900445231,-0.08126350171557616,0.08846425773898532,2.0305126953125,-2.8516259765625,-2.8129345703125
0.11341799729121915,0.005859997291482237,0.0031261550130153837,0.07187719351786855,-0.10552989941971225,0.09987459667015318,2.0305126953125,-2.40673168285473,-2.7650341796875
0.10511848266330663,0.015477696462904702,-0.008052598040711609,0.10795416680420751,-0.12809469027424594,0.07772558167105269,2.0305126953125,-3.2937476748511907,-2.7650341796875
0.10380795978215333,0.018567451399273623,-0.008999067375040854,0.06003234538136267,-0.08514608856648365,0.05427859157596026,2.0305126953125,-4.334765088427198,-2.7650341796875
0.10318247571697685,0.020077495040742167,-0.008181779545590618,0.03351897603927082,-0.05794371749152424,0.026410744409587808,2.0305126953125,-7.2311654897836535,-2.7650341796875
0.10356850670672496,0.02218576191776763,-0.00674353565586774,0.0025009971869617287,-0.029434115026057375,0.006421917364791841,2.0305126953125,-3.617222377232143,-2.7650341796875
0.11097898456058754,0.014338220483664474,0.004952665791802705,-0.04290457370728674,0.006805112097784598,0.0007498228230977587,2.0305126953125,-1.9006618923611112,-2.7650341796875
0.11209122150166483,0.012949013623821623,0.0069155848779860795,-0.00037892074008637124,-0.013354747154148944,-0.00832043680190955,2.0305126953125,-2.7122216796875,-2.7650341796875
0.1124358069311894,0.013111330946747447,0.006701844726518918,-0.009148270016674134,-0.0046630228348877876,-0.006193350016785128,2.0305126953125,-2.6819482421875,-2.7650341796875
0.11224077994212572,0.013114050671732354,0.006594995937499856,-0.004922830059175926,-0.007121951963866037,-0.006233787041840824,2.0305126953125,-2.6332177734375,-2.7650341796875
0.11210931274594153,0.01317513570487959,0.00672163715370293,-0.005627730526256423,-0.00689879710121107,-0.006333104248880741,2.0305126953125,-2.6332177734375,-2.7650341796875
0.11120989500502423,0.013661407567740418,0.006859662568446314,-0.0033494064149906595,-0.00852135388953978,-0.003764930849038167,2.0305126953125,-2.6332177734375,-2.7650341796875
0.10110965645947281,0.02238806162860846,0.00842893925692245,0.013010675266584565,-0.024104774493646983,-0.018655132519691326,2.0255322265625,-2.5825978405070753,-2.806279109074519
0.09898379354115303,0.02325426026654391,0.006270080389963401,-0.015951232967098262,0.019161878497490514,-0.026086077455977002,2.1954052734375,-2.92899169921875,-2.4935009765625
0.097883962623331,0.022325560894990444,0.004646519076083773,-0.042759540142577886,0.025486700865893313,-0.04669649850967939,4.42310791015625,-2.7240545099431817,-0.24824385209517044
0.10007528094635544,0.019200357658711007,0.004374575640125721,-0.06999774381019222,0.04912793359172332,-0.07458382157034049,7.711648746412628,-1.6313294027453271,1.5514311691810345
0.12164311655018761,0.004118668876519721,0.0038445708958847057,-0.13364874778034358,0.09842573538708364,-0.061283837397381476,4.777823311941964,-0.336792769705414,3.0568680722489314
0.12627717402540123,0.0020892579206431097,0.005007966461288382,-0.0790249251448781,0.025258870430842184,-0.05234773711010438,2.5669049944196427,0.47833453167925827,1.3139838061286409
0.12772397299346663,0.003238887522537272,0.006964136196364267,-0.05100263775666207,-0.005173247038614626,-0.03287126292958745,1.0108753551136365,1.5560130049542682,0.44375566123188404
0.1268433997619556,0.004748842839848987,0.00907714760345432,-0.022335040520257282,-0.02434035583240568,-0.013659244476702595,1.744775390625,0.09786701888489209,-0.862600615530303
0.11549893734549994,0.011081756035035197,0.007149617955001396,0.009805691158536942,-0.08798079970413292,-0.007522225691420262,1.4070837632665094,-1.9100782606336806,1.1934964693509615
0.11370302194280826,0.011789168865093846,0.0067782867000565124,-0.011358730239615,-0.0327930076300136,-0.005869033053395311,1.2266695792214912,-0.3409789261544586,0.46124267578125
0.11312008056886497,0.012101799981688845,0.00630583256588256,-0.00037079989013333206,-0.0072459206925666675,-0.00723479415265353,-0.09267027948943662,0.9144157858455882,-0.9213657924107143
0.11292956633198034,0.012360313260761827,0.006191648743734997,0.0007197526357428345,-0.011129464603615368,-0.007283623767815126,-1.1711566631610577,0.36740234375,-3.0547203650841346
0.11326593462935264,0.012014940620808504,0.006357985778374567,-0.00029321705182817453,-0.01026865563572144,-0.007172994170964637,-2.029686263844937,1.429496433423913,-2.8736279296875
0.11329860164189574,0.012093852961821288,0.0063691433454389915,0.0002457936817111217,-0.012767418439283371,-0.006831013464211446,-4.031607750618812,0.9004345703125,-2.8673779296875
0.11348880845566166,0.01204973250238529,0.006379867408814196,-0.00010986663411355787,-0.008331247901852419,0.0017401663884787056,-1.8603372012867647,3.4598236083984375,-3.515222683758803
0.11280654507583845,0.011430558879574447,0.00662454198879784,-0.006891382534466007,-0.008374983273509174,-0.06892719809564496,-0.8070593939887153,1.0947788783482142,-2.7989697265625
0.10628705954161191,0.0031848042237616766,0.006355291700102372,0.0028690920273915367,-0.007549579861852829,-2.4331404309213545,0.9055440848214286,1.1848607556573276,-2.790191650390625
0.10226973870973491,-0.0038093687217523294,0.006379653920102527,0.012152307874725992,-0.008798040020706463,-8.774583040864282,-2.0779836554276314,0.029479387894417477,-2.351849906052215
0.10166937711722152,-0.005326966765343127,0.006371426129947797,0.015945255122628656,-0.0014463473383371625,-15.954253898739582,-6.271587421367695,1.1855085100446427,-2.8957660381610575
0.10055033417767871,-0.006125042471592301,0.006371426129947797,0.038555940427869466,0.013488175083682741,-23.076833780938138,-1.6254027276976495,0.7029738653273809,-2.8376656326593137
0.10396317915968568,0.00558950407422099,0.0063692654194768975,0.09779638050477614,-0.002651163965427769,-27.523209707937873,-2.557604667467949,0.8418798828125,-3.054636829304245
0.09947348490859703,0.022250497099567765,0.0063688625751518145,0.03613558084245697,-0.008323923459578183,-24.97669034394359,-0.14248746984145222,0.8290380859375,-5.658293895232371
0.09539933713797416,0.02486633725172494,0.006370034485915693,0.008408662353717495,-0.008891765540985743,-18.15953131199072,-2.3830655508667884,0.8306005859375,-3.8038691767939814
0.09211108981597334,0.024108782661869558,0.006370034485915693,0.00677811471445308,-0.016565058126022644,-10.971794412060918,-1.2452406939338236,1.1400006403688525,-3.4402596609933034
0.09093927520887571,0.020396828516495207,0.006369863582262627,-0.002695824790462645,-0.00918686062407189,-4.062582399975585,-0.5585454584478022,0.9739599609375,-0.7029073963994565
0.09305697139860776,0.007782490920743379,0.0063847036623938605,-0.00017289909406975848,-0.007028400621802463,-0.3636284218878748,0.3538411458333333,0.21133568173363096,0.7232890226403061
0.09356148005460223,0.003933509088646826,0.0059713126010925155,-0.007940428717239144,-0.008469606155756051,-0.007029294907986641,0.3960255589978448,-0.395849609375,1.7648604543585527
0.09366294756361279,0.0038871343354359273,0.006336639868508803,-0.0035561693166905116,-0.008273262733848024,0.002481917783135461,0.6607473273026315,-1.4076153790509258,2.3677443119517543
0.09350433818630478,0.0036429318537536666,0.0064390483198430186,-0.0020884789469640514,-0.00822061830500193,-0.000653340826683054,1.8167795034555287,-1.6977577814980158,2.1100146484375
0.09359592655690768,0.0039038433901069504,0.006965974426514865,-0.0031123643646733916,-0.00822061830500193,-0.000461210974455983,0.36831126493566174,-1.3616357421875,2.0931201171875
0.09374231856382796,0.0038275659001998957,0.006664472724929869,-0.0037096445072367233,-0.00822061830500193,-0.00037370778584756685,0.8467538016183036,-1.3621240234375,2.0931201171875
0.09593350871303441,0.004015274129305588,0.00888425743628143,-0.022894463038128855,-0.008196203497421131,-0.0035614164849471354,0.7037060546875,-1.3650537109375,2.0931201171875
0.10736401320504332,0.004604294504617001,0.007052881918338011,-1.4662153465619447e-05,-0.008385418256172313,0.0015162653810826406,0.7204541015625,-1.3650537109375,2.0931201171875
0.10876501498158629,0.0038794801945930433,0.007102015160656464,0.05442819084480614,-0.0061143288761776275,0.006036977335845062,0.6538500515919812,-1.3650537109375,2.1373583984375
0.10810068706670588,0.00288189092684708,0.005081130960472967,0.1112555290577386,-0.008280892361217025,0.007125360726195659,0.9358026413690477,-1.3650537109375,1.9012569304435485
0.10286473830378115,0.0034093822464727843,0.0030720221305747175,0.19634657906321545,-0.008359453587031853,0.016719584813782745,-0.5140142497226331,-1.3650537109375,2.9038411458333333
0.07945377971739852,0.0036982179867527817,0.004377859431745342,0.13722113711966305,-0.00832056642353582,0.007845249748450016,2.4425568533415842,-1.3650537109375,4.885767227564102
0.07613260465113594,0.004095888047009548,0.004688232673116231,0.10706198309274571,-0.007974181340983256,0.0022077299195687496,6.04807861328125,-1.3650537109375,2.436553955078125
0.07585216834009821,0.004467026600117767,0.006438346917106707,0.06144446782412126,-0.008201544236579433,0.002775311635597874,14.69207279265873,-1.3650537109375,2.0268695537860575
0.07709240677685295,0.004213117727330148,0.008424794981013105,0.02929690768741563,-0.008201544236579433,0.0007380542475481986,5.844037351355088,-1.3650537109375,2.1466845703125
0.08948572599822328,0.0039789706422462,0.007261097614739469,-0.01895166552134553,-0.008232062746055428,-0.00025752926842436736,2.4095241001674106,-1.3650537109375,2.1356982421875
0.09122717735386153,0.0039055167993870543,0.006444277845817836,-0.02477527401070496,-0.007589925048801298,0.0018405204423149108,2.788326140372984,-1.3650537109375,2.1356982421875
0.0905044245735038,0.0040191446424756175,0.006355760133905811,-0.020211406502357337,-0.008177592964850107,0.0002893709580315111,1.6578194754464286,-1.3650537109375,2.1356982421875
0.09031605162181655,0.003967737414223158,0.006267283074926851,-0.003995364800593623,-0.014157271167571756,-0.009336109024435194,0.2623687931365031,-1.3650537109375,2.1303271484375
0.09057784927203506,0.0038002894439687707,0.0067101150547807156,0.005034529188221307,0.0009948657317453077,-0.0065946390716738485,1.6960257735906863,-1.3650537109375,2.1290087890625
0.09033152206813427,0.005636819971312548,0.010512836695455776,-0.9406308175908688,-0.044552610619124765,-0.044408848440263174,1.9389474051339286,-1.3650537109375,2.221294696514423
0.10278825891903433,0.007989223345314824,0.014198946772328505,-5.500246436964018,-0.16927343883389598,-0.008826652322967178,1.8060498046875,-1.4262340198863637,1.6325024801587302
0.13868234748374886,0.006500931904485732,0.007037596362193648,-9.618456831568349,-0.14594454786828212,0.02577119393104221,1.8129345703125,-0.9949490906762295,0.4447216796875
0.18360990264595475,0.005787547411656061,0.0018793497679419338,-10.249973155014812,-0.13936017944883575,0.03304279413111108,1.7866162109375,-1.2429247089460784,1.5850408380681817
0.22929983458967865,0.004529921004932582,-0.005424966582232055,-9.07942518387402,-0.0954981999001749,0.055744494799985035,1.886096882370283,-2.1036551339285716,1.7144936615566038
0.2623239381084627,0.003110973331641382,-0.011475653272171035,-4.300486007263405,0.023093744294511078,0.023956057535169543,1.8015615425857843,-4.0003276075053416,2.6163531292925826
0.2717958542916884,0.0046538178387647705,-0.008593611006556881,-0.4840227973265786,0.011618205816827865,0.0011307289418651537,3.355927519745879,-1.9677734375,1.800896661931818
0.27258612054093156,0.00643051336951646,-0.005102397228919271,0.006645359476787716,-0.01028664510025325,-0.00538997087544401,1.6172327112268519,-0.6717936197916666,1.7328173828125
0.2725998063622688,0.006534693860453768,-0.005024535329830002,-0.0032676693414555435,-0.007023488154656654,-0.002554780724509367,-0.7769943763469828,0.4499742402805118,1.5583450882523149
0.2724174887705757,0.006773033845026962,-0.005060746482741708,-0.00862313754161457,-0.0074744407483138065,-0.0024472029786064766,-2.1215103391617065,0.9673391873719263,1.7174048330269607
0.2722404263247386,0.00656945341349524,-0.005065605029450285,-0.005331642294897956,-0.002841708038936353,-0.0021537744460196425,0.7744341500197784,-1.2040000823606927,1.7692730243389423
0.27290998743063255,0.005961984594450134,-0.005210909828575647,-0.004668620713377863,-0.006752393622186354,0.0008933371386449087,-0.5149998520359849,0.0018124337923728813,1.641845703125
0.2783795916623431,0.0015037592699972293,-0.0038569266843673073,0.11375164036988433,-0.03821653100462567,-0.008120810406646714,-1.334115323153409,1.2172694052419355,2.0785248855064653
0.28420030152287373,-0.0020256095507109767,-0.001331033075481767,0.6680104983672597,-0.18358149967955564,-0.03971411786248355,-0.337472575984589,0.7601773845615671,1.4712320963541667
0.2821512765892514,-0.0008681514938810075,-0.0008484004779667392,1.615226447340312,-0.374741265871869,-0.09139083118334343,-0.7561083984375,1.013882506127451,0.40683162913602944
0.27346075258644365,0.002305096531242226,1.510826842798893e-05,2.6225760673848684,-0.4942332253285203,-0.1282391582995086,-0.7510302734375,0.9948583984375,-1.1904650701992754
0.2551483651234474,0.009699236426892853,-0.001497360148930247,3.5258964812158564,-0.47990783410138244,-0.15615051592223517,-0.7418017578125,0.9982275390625,-0.7582299017137096
0.2308231232642598,0.017857163609729262,-0.0027055269020660262,4.007250796972771,-0.26256187627796257,-0.13890385143589587,-0.9897697202620968,0.9982275390625,-1.407805879237288
0.20923579454939414,0.020673161530532735,-0.0019391180150760657,4.061015655995361,0.09167561876277959,-0.12117154102039804,-0.482124660326087,0.9982275390625,-4.386643968186937
0.1898961794856882,0.019324896389660284,-0.0010556880632718348,4.073420529551173,0.46734092226935653,-0.08344284092615893,0.8417928059895833,0.9997412109375,-1.2688757491438356
0.17014891476778699,0.01686733251794132,0.0002361940479864101,4.007638379000393,0.8432763145847957,-0.04598764832689204,-0.6171838561100746,1.2712208581349207,0.5939166891163793
0.14992835452916475,0.01217645919557899,0.001533486665723348,3.887956633198034,1.2234835352641373,-0.009546864692666832,-1.119200589364035,0.1608237953452797,-0.20519256591796875
0.13233023712881858,0.006867057710501365,0.006325050202948067,3.6889255958738976,1.5133469110780398,0.024591814935758488,-2.4562349759615385,1.6093831380208334,1.657076927923387
0.1137129209265419,-0.0020182720419934484,0.010185970000681941,3.2047051911984625,1.51029877620777,-0.003709407447924853,-6.963865135898109,4.068295775341387,-0.144432178442029
0.10693338053529462,-0.009722852870265784,0.010246788537247819,2.566800439466536,1.2349424726096379,-0.035643711661122415,-2.461211688701923,1.670482970120614,0.2722237065153302
0.09863727774895471,-0.0171755705435346,0.0073886935026093135,2.0189153721732227,0.8491000091555527,-0.07269089327677229,-1.1138371058872767,1.0024892769607843,-2.9015850764448925
0.09060391491439553,-0.02372666158024837,0.0023563760047919796,1.5887379070406202,0.43529801324503303,-0.08689128289641003,-0.0550187317251462,0.9074378380408654,-1.130959903492647
0.08670378984854307,-0.0258889431440168,-0.0007675551622058392,1.4046292838861671,0.18977267525254063,-0.07773789178136535,1.56505344338613,0.9059659090909091,-0.4466099330357143
0.07558279996818067,-0.027508086315064316,-0.0016137543531262093,1.434327092298146,0.10468670402445235,-0.07471121860408331,-0.6911022479717548,0.11173727101293103,0.27129302153716217
0.06743046601763966,-0.028011580971227433,-0.0017186514129293223,1.3993101190872272,0.024610431226538863,-0.06402027261352185,3.37459228515625,-1.7771762025122548,1.4497008504746836
0.06044182500686662,-0.027705052691380353,-0.0015114740619596788,1.37408560278416,-0.0534612151360709,-0.04453413495284886,,,
0.05352513786149757,-0.02697909678994499,-0.0011264771602048026,1.349374193439392,-0.1344956434827722,-0.033234583457559266,,,
0.04732814355906852,-0.025920253407276373,-0.0015017021549058927,1.3183111488721684,-0.21210680787331487,-0.01833661257709658,,,
0.04101272865993221,-0.02454036418370756,-0.0015973657831166118,1.2967931739196321,-0.2777089754936369,-0.004156639829216885,,,
0.03494358592486338,-0.022758325097248358,-0.001471304000421631,1.2577937290152923,-0.34091051973021647,0.009477844992675536,,,
0.030159052705465803,-0.02081932025106557,-0.0015176940214239164,1.225371922740953,-0.39868053224280514,0.01540917691579939,,,
0.026363722037415646,-0.018450456790278548,-0.0018917635629341746,1.188999249421586,-0.4456210516678365,0.025736050960361953,,,
0.020517944318414246,-0.0160396309773642,-0.0008656370991261039,1.1343567553645533,-0.4986584063234352,0.04119267606636755,,,
0.015055391094698882,-0.01350811243018886,-0.001735244198939877,1.098945446777107,-0.5448680433506448,0.05588246947212079,,,
0.010051825124245493,-0.010509076264558328,-0.001276839403097913,1.067685753682336,-0.5950465407269513,0.06834342756154331,,,
0.0031031186525738406,-0.00488964873195589,0.0035778716391491262,0.9849871822260203,-0.6072438839328468,0.08132847255595456,,,
-0.003200780077038249,0.0012622235786004016,0.010653282876064313,0.8942495498519851,-0.5313963744010743,0.07178964019748149,,,
-0.0061249647511215114,0.005389180578020516,0.015272369151890603,0.6378116702780235,-0.38396908474990077,0.054490723869124624,,,
-0.006684107695631078,0.006701698325132182,0.015364089208994134,0.3839556566057314,-0.21974364452040165,0.03243934152794435,,,
-0.004204287312019401,0.005030588091677553,0.01040539933469647,0.15256431775872067,-0.08208151493881032,0.01533669545579389,,,
-0.0013115732291634436,0.002117523117770884,0.0037036689352091833,0.012269768929670655,-0.012503526463917666,0.0018286476063266478,,,
0.00015712076382870465,3.352556261151282e-05,4.385374774049219e-05,-0.0012879842029595572,-0.006936894421588551,-0.008024345681318316,,,
-3.904251602065846e-05,-8.092184324885973e-05,-0.00010320740688642126,-0.01275058959554142,-0.002631858948696688,-0.004839800524968753,,,
5.4723636944621427e-05,7.129035354143964e-05,-0.00015219830827386911,-0.003382023071993073,0.0009594559179507208,-0.002174506338093996,,,
-6.578434264843742e-07,-2.560563982054754e-05,-2.7360646863845487e-05,0.004075710360114211,0.0001769649681420879,-0.00023545877797104424,,,
-7.515150946040562e-05,8.277020012635941e-05,0.0001443441066602794,0.0008027353637828445,0.0009621202322700452,-0.0024109622486037227,,,
1.0332369385766463e-05,2.7896692071011923e-05,7.820923737065504e-05,-0.002201147495956218,0.003725779056342644,-0.0030414661770140827,,,
7.925907062631795e-05,6.967435553583924e-05,2.1830512050261068e-05,-0.003280033321691007,0.000926887524930868,-0.00235793633838917,,,
0.00016368000586846961,-3.073491345228231e-05,-5.0748331804370684e-05,-0.0034932054935385226,0.00014792268924893878,-0.00234801782280947,,,
0.00010512722262344772,-2.567369609669304e-06,-0.00012642491584182795,-0.0028453155961897145,0.0002259217437597923,-0.0023548844874415717,,,
0.00010350442249103053,-7.672868052303831e-05,-8.800201131503246e-05,-0.003064821314126942,-0.0022933866037149917,-0.0023709067049164697,,,
8.963605083197316e-05,-4.5272513334892514e-05,-3.4788447019169056e-05,-0.003064821314126942,0.0010163065214842143,-0.0023495437482832717,,,
4.4801171910753956e-05,-5.963777408356006e-05,2.950684366192455e-05,-0.003064821314126942,0.0002760697351449518,-0.0025786096857028954,,,
0.00012056642353582774,7.999439895580964e-07,-1.5267838068741545e-05,-0.003065584276863842,-0.0009692943987919489,-0.0022086331680918584,,,
9.85213782158575e-05,4.414702344558064e-05,-3.140524172350964e-05,-0.0029216984807167133,-0.0030723842343714507,-0.0002173786073667372,,,
0.00010199530014950401,-2.543902217354116e-05,-7.203787701887521e-05,-0.003523232359293762,-0.007128260790169168,-0.0020319029840804256,,,
0.00010342356639298061,3.0536594518647515e-05,-2.9709158604665273e-05,-0.006372328358816224,-0.0033363935139553557,-0.0026211584826196527,,,
0.0001011407818841761,-7.30622364888422e-05,-2.3129367961640244e-05,-0.002945293922115043,5.555829717106268e-05,-0.0028613110430422846,,,
0.00010201971495708563,-6.71415456717716e-05,-2.461867122406882e-05,-0.003756270966802822,0.0023956200631334496,-0.004467613944592032,,,
0.0001336354094263276,-6.0399139120128865e-05,-1.956480605484377e-05,-0.005340387793881132,0.000405341294040277,-0.0026399849227854407,,,
0.00010333452144382049,-5.383798000760281e-05,-2.1615649891630707e-05,-0.0040749839777824495,0.0006805910191938524,-0.002856341746269061,,,
0.0001015436262092561,-1.224549089022582e-05,-2.036960906982754e-05,-0.00963731757098545,0.0003903594802975107,-0.0026824124223497887,,,
0.00010375316629531478,-3.858285605775475e-05,3.376677442053976e-05,-0.0057123783074433596,-0.0017092484647493764,-0.0015977859176241214,,,
0.00010342356639297479,-4.293592199262142e-05,-9.712947506412293e-06,-0.004184426743708857,2.964655206240419e-05,-0.0028546250801110328,,,
0.00010342356639297479,-6.971485539312268e-05,-3.342692342902011e-05,-0.0016498821470286,-0.0030125392925809064,-0.00279969176305424,,,
0.00010342356639297479,-4.973052156132772e-05,-1.5227129991115852e-05,-0.0022491403132773465,0.0005960345212529068,-0.0028134250923184385,,,
0.00010342356639297479,-4.639790032654882e-05,-2.3130726899037202e-05,0.0016750969947143743,0.002811293284671227,-0.00279969176305424,,,
0.00010342356639297479,-4.6916339375216524e-05,1.3786518666463672e-05,-0.001217704935893022,0.0032326458675757744,-0.002811899166844638,,,
0.00010342356639297479,-4.837549974059345e-05,6.542809390364888e-05,-0.0034396903388571078,0.004412467828404554,-0.002811899166844638,,,
9.86608914020302e-05,-4.767967772454071e-05,9.416176645399652e-05,-0.0044650785520694136,0.002805159662668699,-0.002811899166844638,,,
0.00010408487257321408,-5.900683379854448e-05,0.00014987979098206837,-0.007657934744428749,0.002871333964049156,-0.002811899166844638,,,
0.00010420484023556235,-4.055340920200787e-06,5.041054102611496e-05,-0.004029757242211772,0.002871333964049156,-0.002818765831476738,,,
0.00010231269264805334,-1.13576727422444e-05,-1.1082199614893942e-05,-0.002589495529038279,0.002871333964049156,-0.0028103732413708384,,,
0.0001165543971383732,1.7711833135887313e-05,-7.667453127219177e-05,-0.002477015041103834,0.002871333964049156,-0.0029145857766306148,,,
6.37836848048272e-05,-1.5613078707236442e-05,-4.378897467977368e-05,-0.002829245349068835,0.002871333964049156,-0.004496072334904039,,,
2.1819836672116885e-05,-3.28223322764415e-05,-5.6015145599585257e-05,-0.0027199621570481647,0.002871333964049156,-0.0029939710158348428,,,
-1.1601058019713558e-05,3.551185709025537e-06,-7.024015997903796e-05,-0.0027474288155765634,0.002871333964049156,-0.0016473100875439442,,,
4.181689766271475e-05,3.90089475865045e-05,-1.5133725774468147e-05,-0.0027474288155765634,0.002871333964049156,0.0008255256813257144,,,
6.0693916921210464e-05,7.529826488887625e-05,-6.676413395664615e-05,-0.0027474288155765634,0.002871333964049156,0.004348418269939364,,,
4.17273476363385e-05,9.18678345082763e-05,-6.185713453387269e-05,-0.0027474288155765634,0.002871333964049156,0.0008286457300598364,,,
4.407116916409509e-05,7.958900287308767e-05,-8.559459108555278e-05,-0.002743614001892063,0.002871333964049156,-0.001275937019519112,,,
4.3390139649105935e-05,5.2521100622868335e-05,-0.00020215073822546324,-0.0028052085705364124,0.002871333964049156,-0.003718552030778561,,,
3.5582402155475376e-05,1.1362041077912928e-05,-7.47082212504202e-05,-0.002636476426798926,0.002871333964049156,-0.00668257409605406,,,
4.9532139281687305e-05,2.1077232616944043e-05,-8.135013885916902e-05,-0.0032063843650998076,0.002871333964049156,-0.004281805071555498,,,
4.845362712484831e-05,-2.6580294861876695e-05,-3.0470650904294414e-05,-0.0022281098231839405,0.002871333964049156,-0.002625746298024427,,,
4.6598101748707695e-05,6.107717488550531e-06,1.434030850824229e-05,0.00014189610900975635,0.002871333964049156,-0.0018678130917980289,,,
9.054069606466752e-05,3.5136171474136685e-05,3.694074831388732e-05,0.00026231693420366735,0.002871333964049156,0.00012990622175181713,,,
5.3793959369686684e-05,6.9855414928192854e-06,9.227101792793595e-05,-0.0002304147465437345,0.002871333964049156,0.003403082692119681,,,
2.962792388128555e-05,5.536407831349345e-05,2.7895114465383217e-05,-0.0002121036408581365,0.002871333964049156,0.0007777486205967637,,,
-6.255254038846447e-05,1.7728392895290203e-05,2.8157281094715723e-05,-0.0002098147526474365,0.002871333964049156,-0.0013143155147125568,,,
-1.0603603499363645e-06,-1.3070641629863498e-05,6.658484799622639e-06,-0.0002098147526474365,0.002871333964049156,-0.0013843958861048619,,,
4.546148147942401e-05,-5.464395637435657e-05,1.9926164583931572e-05,-0.0001937925351725405,0.002871333964049156,-0.0020108137251909387,,,
4.997434717740942e-05,-7.238520932175616e-05,7.5253095548146326e-06,-0.0005863232389729568,0.002871333964049156,-0.0009221140867549609,,,
3.7616755738824474e-05,-6.613478382331272e-05,-9.563435144011762e-06,0.00021819371841881106,0.002871333964049156,-0.0011077171736029823,,,
8.570975716125047e-05,-7.765035647966006e-05,-4.0881952799065324e-05,0.0036419234492134677,0.002871333964049156,-0.001072344126712788,,,
0.00012488341302283493,-3.7782469613275254e-05,7.438378043067426e-07,0.00079361509948767,0.002755342683965239,0.00015022473198961816,,,
6.074600316520189e-05,-6.949261501293799e-05,3.415371422767865e-05,0.00011601521616980212,0.0028812524796288535,-0.00102661674683048,,,
6.42729654244919e-05,-4.2340666627297496e-05,2.8990075631563077e-05,0.00010358686389451225,0.0028812524796288535,-0.0011320459608752153,,,
-5.470743202604181e-06,-6.029140987734631e-05,6.666034553010938e-05,0.0006815573377396332,0.0028812524796288535,-0.0023363470792492737,,,
3.7950105627954274e-05,-5.784992911926654e-05,-1.784350004884723e-05,-0.0007278066107878156,0.0028812524796288535,-0.003916818485193833,,,
8.395475492248919e-05,-6.832555709743625e-05,-1.4748843724385053e-05,-0.000524918362987096,0.002792748802148464,-0.002241240439777652,,,
8.675993362522329e-05,-8.789086581010165e-05,-8.126589270214294e-05,-0.0008239997558518621,0.0027919858394115614,-0.0025085380298775655,,,
0.00012155274876912421,-8.82570879238098e-05,-4.724677679169182e-05,-0.0041121979743533816,0.003241876354258817,-0.002130406126403331,,,
6.821840571305865e-05,-9.610685547449013e-05,-3.895928670178238e-06,-0.0007504374319690977,0.006969968850524986,-0.002084795678579007,,,
7.814874721517326e-05,-8.159184545426003e-05,-3.8251990877233146e-05,0.00044578822770298605,0.0027240821558274673,-0.002097766045106307,,,
3.599294877104342e-05,-8.440342597195706e-05,-2.4929433426837052e-05,-0.0003329158557741719,0.002634052552873275,-0.0023623066424873895,,,
6.343347240096011e-06,-5.540311714206081e-05,-2.8219855342237544e-05,-0.00016632587664413748,0.0026256599627673795,-0.002189923140307627,,,
-5.176121407185637e-05,-1.557836055637999e-05,-2.2750375025505534e-05,-0.00016632587664413748,0.0026775414288765713,-0.0008041258071406919,,,
1.7466855329965067e-06,-2.4470031550326416e-05,-3.631813604038274e-05,-0.00016632587664413748,0.0027599414044617633,0.00041557119286463187,,,
6.124139009409745e-05,-8.677780315140995e-06,-8.379813023261293e-05,-0.00016632587664413748,0.002775200659199763,-0.000594240889555606,,,
3.256974291077502e-05,1.206313447286706e-06,-5.6077150791925304e-05,-0.00016632587664413748,0.0029165717854031897,-0.0004474552051112657,,,
0.000102197587003155,2.254449892667186e-05,-5.773735770741585e-05,-0.00016632587664413748,0.002676015503402771,-0.000468840601824961,,,
6.127608060955354e-05,-3.3104790821591724e-05,-4.616878261639425e-06,-0.00016632587664413748,0.002690511795403871,-0.000358211004974479,,,
7.081131961436108e-05,-1.525925473800459e-06,2.6497464651739757e-05,-4.87288464981894e-05,0.002690511795403871,-0.001100322773393594,,,
7.432665603995927e-05,-7.317399541284025e-06,1.0166694402065373e-05,-0.0009384441663868553,0.002690511795403871,0.0007374123568735029,,,
7.394694686248227e-05,-8.887928990471953e-06,1.4713583788597563e-05,-0.00016521077725944815,0.002690511795403871,0.0029371586430346473,,,
4.102704957222837e-05,2.2772911770988376e-05,1.478682821133991e-05,0.002254469161389065,0.002690511795403871,0.0008631983486390073,,,
-1.181992159143866e-05,-8.013016144292259e-06,1.0386857321300284e-05,0.006459242530594757,0.002646259956663675,-0.0009615479675746661,,,
-3.327518139752203e-05,-2.424206130075158e-06,6.234860512672291e-05,0.0026969382372886734,0.0026516006958219734,-0.0006355479598376233,,,
-3.433171692316003e-05,8.813745536660345e-07,0.0001236574099838777,0.0012561636489673948,0.0031489613801647482,-0.00246273472003622,,,
-6.930317523291983e-05,2.670895760347131e-06,4.086809900206502e-05,0.0005623182094555823,0.0027164525284584674,-0.002981888704178274,,,
8.604634295112711e-06,4.465256003853047e-05,5.65849605696508e-05,-0.002169513333421547,0.0027195043794060675,-0.00287064729758593,,,
3.583744969892089e-06,-2.0780489080914122e-05,1.9157078768301543e-05,0.0009397157709484171,0.0027195043794060675,-0.003783818323313041,,,
-2.251680712848613e-06,-4.619979160217807e-05,1.844904934845834e-05,-0.0004005554368724104,0.002827082125308958,-0.0028042695394756355,,,
5.026931373559939e-05,-6.620245411399577e-05,2.3043822232053646e-05,-0.0008063726857234783,0.0016583219487324677,-0.0028393658253730338,,,
8.03320049430504e-06,-2.4308364974577116e-05,-2.0584435440466594e-05,-0.002957466456214609,-0.0006549760828635189,-0.0028134250923184355,,,
-3.454088944680376e-05,3.1403244087339395e-05,4.290495518869429e-05,-0.006935309099270978,-0.004599725584006543,-0.0028134250923184355,,,
5.085663487162794e-05,6.168192324434081e-05,5.632360471098507e-06,-0.0033101493206791916,-0.0011885623178480185,-0.0028134250923184355,,,
4.051573068539549e-05,9.519476159690933e-05,9.232712847916653e-06,-0.0023446720435943767,0.001014305417463729,-0.002852336191900332,,,
6.894082848548668e-05,7.615995768099378e-05,-2.682107467380267e-06,-0.0003702215151553652,0.0034290597247229938,-0.0022030549027985003,,,
0.00011535565732377565,4.141870377717317e-05,-6.512482697464491e-05,-0.001335124236976656,0.0035903639193534107,-0.002913919252811088,,,
3.7088534195988396e-05,-3.2016118806991273e-06,-2.851339785338781e-05,3.980362202885474e-05,0.0032752045488137096,-0.00288056581316563,,,
-7.841023873666654e-06,-2.6983130893887853e-05,-4.677508607079975e-05,0.001419160885550754,0.003290200506607208,-0.0032957746226026674,,,
-6.483029015921155e-05,-5.6641292074073804e-05,-7.356512572328584e-05,0.0006141850032044397,0.0032970671712393078,-0.003345442000769486,,,
1.1243926879668998e-05,-1.5681818715359252e-05,-5.919347491657538e-05,0.003334934344028823,0.0033161412396618063,-0.004541217790256404,,,
7.684022124123107e-05,5.7507044689262944e-06,-0.00010318685248891722,0.005253191598679254,0.003298593096713106,-0.007444682267102624,,,
0.00012333786323754221,-3.5563600573756928e-06,-5.991586528807828e-05,0.003574641046110215,0.003332163457136704,-0.004262907568825053,,,
9.152134769735785e-05,3.001949060483457e-05,-2.2913437229534925e-05,0.008158659096307114,0.003057244304877757,-0.003313236329685744,,,
8.074845470699877e-05,6.370738853113619e-06,1.9609740926948265e-05,0.004040490030887917,0.006462446974089749,-0.0019153013872357497,,,
8.991926680453283e-05,1.0469643956706012e-05,6.429087336710251e-05,0.0011137248162062794,0.0024885961842350613,-0.0001754814294869638,,,
2.0763776563815654e-05,9.799215951746625e-06,0.00014196836912198338,0.00036212261243908424,0.004290446774023963,-0.0016650256275167283,,,
2.7120782087666708e-05,-1.7640907130968216e-05,8.115482039858093e-05,0.0018688623611258965,0.002436727875456428,-3.807749214711846e-05,,,
4.4841863256729385e-05,3.460711778836637e-05,3.907589953308474e-05,0.0009284620705791206,0.0007601352867572632,-0.00015139158751633703,,,
1.679627785160353e-05,6.864576523555796e-05,2.3874864720867497e-05,-0.0006454889154977938,-0.0010250144269317242,0.0016679743000240414,,,
-2.3157841979131065e-05,5.017360336736333e-05,-1.1839728414286536e-05,-0.002170096686896348,9.74658031504549e-05,6.024883430643495e-05,,,
5.8414091783021836e-05,3.14576657409382e-05,2.6297979136179707e-05,-0.006177888461321419,0.001426245265845324,0.0023538366208978785,,,
4.355492352376458e-06,-1.92754905850418e-06,6.282106483128197e-05,-0.0023177237141384474,-0.004054210375598736,1.410593897292083e-05,,,
2.3288299792419477e-05,2.5777967670724878e-05,1.618643612116198e-05,-0.00022310507129021188,-0.0015396975977794436,-0.0013641324934160258,,,
1.3817255165255704e-05,2.7582748544834794e-05,-3.82944319221477e-05,0.0002473958225934781,0.0008887304832920661,-0.001202810754722682,,,
-4.655089978738749e-05,2.4994060858694252e-05,-6.754696723559885e-05,0.0028492235250824308,0.00023241894716607682,-0.001429306647208748,,,
-0.0001003712781652669,5.62309188671032e-05,-9.717258382069728e-05,0.0007899389193831727,0.003246894741660765,-0.0006155904608776509,,,
-6.812257496240253e-05,-1.0192213323423214e-06,-4.508670101633869e-05,0.0007117055130300231,0.0006804324993840348,-0.0012570468816923044,,,
-1.0331041638825346e-05,-8.448761855225737e-06,-4.7260091816991e-06,-0.0014843058565018718,-0.0020670967174148775,-0.0010111375604859368,,,
3.463647368795668e-05,-2.8507678796079505e-05,4.653281474478378e-05,-0.005251958039823826,-0.0004699628237147032,-0.002238005328172666,,,
6.766505090155447e-05,-4.928390497407943e-05,-9.926145207051295e-06,-0.001380300800394569,-0.003323109632658809,-0.0042065625833982555,,,
7.927631637997012e-06,-2.6446323028250684e-05,-2.897593754244218e-05,0.001881504577904638,-0.0023292162410787254,-0.0025683053186851598,,,
-4.4165277149685425e-05,-6.5259579935238995e-06,-2.3317158523255253e-05,0.005176954388952588,-0.004229138214514534,-0.00235387876383384,,,
-0.0001063081759086684,-2.0882665336527027e-05,-6.137739009292787e-05,0.0017899269885679984,-0.007693492611889772,-0.0024691568573594162,,,
-4.241210337548148e-05,1.4847747094095337e-05,-2.858762685720286e-05,-0.0006091262285358147,-0.0038735764876012156,-0.0004712124207679483,,,
2.0592586491063994e-06,-6.655941590480458e-06,-2.392869132269361e-05,-0.0035186993689449576,-0.001193521167885588,0.0007528730894913631,,,
8.293548905333921e-05,-1.0230743407415822e-05,-5.10426430772853e-05,-0.0009700250290407883,0.001141763425463455,-0.0008406808956904786,,,
2.3808081392407936e-05,-3.204202559378639e-05,1.0804893827487956e-05,0.001293564194119603,0.004748036155559508,0.0027103266182582574,,,
4.109186507330545e-05,-5.367576069807045e-05,-1.755233176369799e-05,0.0006999179212718821,0.0019190867656294732,0.0003860016613774877,,,
-1.9841352364281283e-05,-7.942854988608559e-05,-1.530442213199477e-05,0.004256742509786704,-0.0009796816002033773,-0.0020705043616415534,,,
3.794448996867819e-05,-3.7344105990407186e-05,-2.0394909512591124e-05,0.0008878649987424221,0.0029615919571559625,-0.0005623788914396005,,,
-7.271856534835611e-06,7.77399318773778e-06,-1.777031769765543e-05,-0.0004500420477241495,0.0007902246981086421,0.0007457960753196457,,,
-3.941954946618618e-05,5.1581915200798866e-05,-5.7360436163309876e-05,0.00045930356761375585,-0.0009723759302121663,0.0024708548234503797,,,
-4.066029204607523e-05,7.076692013705709e-05,8.097193967034072e-06,0.0004127628406628638,-0.001611465334494559,0.002401462614526647,,,
-1.427276453980308e-05,5.3007973897571437e-05,1.4684852791812609e-05,0.0003639781056622626,-0.0021855306024353297,0.002656876441858237,,,
-5.4087176421522064e-05,1.4947229287665808e-05,1.1518044517556232e-05,0.0002525257058602187,-0.001379894405957172,0.0024769585253455774,,,
-6.800902166518429e-05,-1.8936253258654245e-05,7.875739244549982e-05,0.001464186879917355,-0.0013959166234320697,0.002367657048814877,,,
-4.283103257681581e-05,-3.855119164255976e-05,2.0854864691697273e-05,-0.0009055475912374131,-0.0013989684743796697,0.004110509430219372,,,
-4.505210187756816e-05,-5.520223377797384e-05,4.169155378453979e-05,-0.00385870500238607,-0.0006112465656366468,0.0027555481055976426,,,
-9.525687585933183e-06,-2.902649345717198e-05,3.778306637317841e-05,-0.0014904147390082982,-0.003057925019874031,0.0008877934649846651,,,
3.243263039032534e-05,1.7001000101775337e-05,-4.1348679477800154e-05,0.002373252299817144,0.0006875419942194921,-0.0015294606676331,,,
