acc_x,acc_y,acc_z,gyro_x,gyro_y,gyro_z,mag_x,mag_y,mag_z
-0.00019678545382600092,0.0001085714124382681,0.000378024169094506,-0.01353814253812558,-0.04009377064255577,-0.005177729905059523,8.553949400436046,-8.893591783071997,-6.136604817708333
-0.000266944658032619,0.00021424204124624303,0.0001258793859545925,-0.05078314257389734,-0.06325408823888634,-0.01090074206929577,-5.718799221900202,-2.7766236422354713,-1.989154237689394
-0.00018576139866326286,0.00019513189466387976,0.00032728537858216623,0.004542570808524622,-0.023503448591570657,-0.015318015174590466,-19.724595997431507,2.2392180686773258,-0.07908241421568628
5.991043645488825e-05,0.00020196551169063856,0.00041013590127032535,-0.02469496041875168,-0.006673431602933799,-0.008513048146339583,-8.328342297938482,4.3849346454326925,-0.1532275390625
-0.00022266060365608024,0.00021825549417939683,0.0004224982451857554,-0.015725577562791804,-0.004769339908576079,0.01568697356943384,-3.436202531008376,4.815692253832547,-0.1934532752403846
-0.00021511176379217115,0.00033360054655321694,0.000412388295319333,-0.016030528318996866,-0.004852290414136127,-0.016359205860945285,-0.4086818942775974,4.886474609375,0.21274329876077586
-0.00023500694989689758,0.00022075716422005615,0.0004187261574145182,-0.015196946114485068,-0.004772619829775776,-0.025232287473261585,-1.2393979673032407,5.7625037560096155,4.954239755306604
-0.0004245243935848918,0.00017712708142098843,0.0004193121127964562,-0.015241859187597247,-0.005077985499960072,-0.025753252302066612,-1.0500344669117647,8.8819580078125,-0.9540533021438954
-0.0002239057588427053,0.00017118442335271595,0.00041788384655298225,-0.01529984435560164,-0.0023665794535729155,-0.025549104281746837,-0.9331416377314815,4.970861098345588,-3.169980941280242
-0.00021935039965371758,0.0001742851039154779,0.00042013000885041417,-0.015334177678762136,-0.0050789382191671305,-0.02542092654194765,-1.4992379853219697,3.616412984913793,-4.4647021484375
-0.0002113321329385933,0.00017488326670120794,0.0004191290017396002,-0.015419629505294928,-0.0052425810677252166,-0.025275200659199765,-1.0479020743534482,3.972849719929245,-4.4264697265625
-0.00020806054872276933,0.00017550584429451793,0.0004182831004651805,-0.015465407269508924,-0.005068971831415704,-0.024921033356730824,0.05146558357007576,3.8735009765625,-4.4237353515625
-0.00020901272621841931,0.00017550584429451793,0.0004223517563402649,-0.017819438303284384,-0.005036927396465905,-0.02785854393416882,3.4233286830357144,3.8735009765625,-4.4069384765625
-0.00020915921506390532,0.00017511520737322595,0.00041988586077460486,-0.015154118472853759,-0.005031586657307606,-0.025013733329264157,0.037510463169642856,3.8735009765625,-5.0055930397727275
-0.00020793847468486535,0.00017665334025081795,0.0004196172978912168,-0.011277069857829346,-0.005043794061098006,-0.024919660023804396,-0.9561745383522727,3.8735009765625,-6.573231686827957
-0.00021058748130738136,0.00017690969573041593,0.00042153840814262224,0.019587741378189284,-0.005052949613940804,-0.024782276845137303,-0.88353515625,3.8735009765625,-11.473879419191919
-0.00021006256294439329,0.0001569900850747858,0.00043925713252781893,-0.023477093910648252,-0.0050506607257301064,-0.024929578539384094,-0.892861328125,3.8735009765625,-6.880350606424825
-0.0002096719260231013,7.14164653777471e-05,0.0004093642794355368,-0.02817583987237275,-0.005106357005523801,-0.024899822992644996,-0.874697265625,3.8735009765625,-3.8143865411931817
-0.00021157628101440334,0.0001674409760288405,8.94451962728082e-05,-0.028319040498062033,-0.005040742210150405,-0.024764778588213715,-2.1020078916807434,3.8735009765625,-2.438296911851415
-0.00021395672475353335,0.00019645080258413498,0.0004203212581764605,-0.028339640491958334,-0.005035401470992106,-0.024691534165471315,-4.293690671202957,3.8784326171875,-2.4984912109375
-0.00021348063600570535,0.00020569005871286589,0.00042678304391617774,-0.028286996063112236,-0.0050506607257301064,-0.024727393414105615,-1.653506747159091,3.4829862000512297,-2.5674450444240198
-0.0002117715994750493,0.00020322933702422995,0.00042486648152108405,-0.028286996063112236,-0.005088045899838202,-0.024727393414105615,-1.401015625,2.28070068359375,-2.4763720703125
-0.00021156407361061535,0.00020267952513194253,0.0004320240892768584,-0.028286996063112236,-0.0051345866267891,-0.025127013898336072,-1.13177734375,-1.107090135745432,-2.4780322265625
-0.0001821785990125765,0.00022455308799955047,0.00042458571123390803,-0.028286996063112236,-0.005172734763634095,-0.02470964866152856,-1.1609765625,2.2367671843497985,-1.0654593802787162
-0.00019416852320929288,0.00021198592660730226,0.00042320627460559204,-0.028309121982482335,-0.005197149571214893,-0.024727393414105615,-1.221669921875,3.9598991297468356,0.2985338184931507
9.68874257751133e-05,0.00028532406614008825,0.0004244758445997941,-0.02826181829279454,-0.005133060701315298,-0.024816660054322905,-1.215859375,5.186414930555555,1.0394287109375
-0.00017460086876020336,0.0002076436551750619,0.00041914120914341015,-0.028335062715536933,-0.005133060701315298,-0.024779274880214808,-1.215859375,6.3649761493389425,3.0426667865953947
-0.00021444652335483646,0.0001751811933396616,0.0004846956309436989,-0.028376262703329533,-0.005215460676900492,-0.024783852656636206,-1.233681640625,7.2425927734375,1.333822671469156
-0.0004552619341596295,0.00019600207525859655,0.000778682359411893,-0.02833964049195833,-0.0052543717764823895,-0.0248532822656941,-1.188076171875,7.2783837890625,-0.2959565662202381
-0.0002459767448957434,0.00019240089114043056,0.0004900213111327982,-0.028328196050904832,-0.005284890285958386,-0.024652499818062692,-1.203701171875,7.1659326171875,0.4840675636574074
-0.0002426924004880315,0.00019555040131835052,0.0006093246145503838,-0.028166447950682048,-0.005328379161961681,-0.022033913273124494,-0.09439579133064516,7.1894189453125,0.7616832386363637
-0.00023478255561995226,0.00022611758187179382,0.00048104675485686896,-0.027924588763084773,-0.005316171758171283,-0.024623630481887225,-1.280068359375,7.1967919921875,0.3035174675707547
-0.0001978933711667852,0.0001966978972746445,0.00045411949013748513,-0.027910855433820568,-0.005375682851649477,-0.02465796380504772,-1.279287109375,8.967506264740566,-1.1261409344059405
-0.00022858119449442583,0.00019916379284030603,0.00046619117632104226,-0.027838373973815084,-0.005219252014808472,-0.025499201256941606,-1.279287109375,12.790148788623595,1.9865100337009804
-0.000232988067262759,0.0001962001064756375,0.00047226142655525674,-0.03134664194667395,-0.005272682882167989,-0.024838023010956105,-1.272646484375,16.74790300641741,7.106614635836694
-0.00022928922391427184,0.00017919808904636386,0.00044414407230461157,-0.028165796497883627,-0.005393230994598175,-0.024735023041474614,-2.4553598257211537,20.902986653645833,5.874979654947917
-0.0003138896734499625,0.00013162906751217345,0.00025167213600590113,-0.027206433737776207,-0.005431379131443172,-0.024349523882461088,-1.372744140625,24.631384898040253,9.852940285852712
-0.0005656559056008236,2.3863285831855358e-05,0.003767151989219955,-0.01661983815552549,-0.00538102359080778,-0.015965011928206038,-1.369228515625,28.13689507378472,13.332137522977941
-0.003994841817016515,0.00040592201652049024,0.007859087065717163,-0.05665131396377942,-0.01122105986968588,-0.05296718709897555,-0.8628712780070755,28.4802392578125,18.93954307154605
-0.007085241651892017,0.0010369047537008064,0.01161146275215923,-0.15620990630817583,0.006500229267932964,-0.08785116827201844,0.7883565512048193,28.6549951171875,23.94011981670673
-0.00958300485244296,0.001662768469076439,0.01434517654957736,-0.33838122944114624,0.03136338557445325,-0.16493577293307635,2.3557053786057693,30.0772119140625,28.387640591325432
-0.010975998209580739,0.002296764760554494,0.014356920072023736,-0.6139858100898978,0.0760994161493428,-0.26621821252514183,2.8727667136270494,32.90135556175595,33.11105501853814
-0.008586346940173881,0.0031165035123213503,0.01145602587969608,-0.9875576521287143,0.11949508760992104,-0.357673671126993,4.525585229846015,36.650307963213585,37.20318723192402
-0.0027202832117679122,0.0016312997833185369,0.006461513107699864,-1.3580471147096864,0.16581555302000348,-0.43611387806704766,6.057103650323276,41.588356300636576,38.781268425707545
0.00664363780632949,0.0009274264086451029,-0.0003068453016753641,-1.6379709214092895,0.2055612353892634,-0.47913223753768325,5.690715207891949,33.83975454477164,43.209147135416664
0.018627851909830333,-0.0007268910103411324,-0.005365483565782514,-1.821343487459073,0.2341912870155751,-0.5159903280167546,7.766304634712838,33.3667626953125,49.290658661813445
0.03174208747801615,-0.0029106669686392414,-0.010143913083284873,-1.942217239883727,0.2594761384816927,-0.5524291970580159,8.804836107336957,32.2647607421875,41.17520091572746
0.04397017975402079,-0.005136202073224025,-0.013134058951915484,-1.9150601016464541,0.2760660115359965,-0.5167113923087503,11.128033262310606,23.024635597511573,30.950785688920455
0.05424145775181874,-0.006829536685428231,-0.01354754162103005,-1.883054759009416,0.27794137394329665,-0.5065339688617299,13.744708952356557,7.950961243872549,18.530463723575366
0.06450065248573254,-0.008590252388073313,-0.013825428312747731,-1.88686241507361,0.2896353038117619,-0.5003857906950194,13.82818359375,-6.048865878704897,10.156685207201088
0.07347700064088868,-0.009809723197119003,-0.013372979118614967,-1.8666436506241029,0.29946885825468844,-0.5028673460165127,15.048400086241884,-12.44372812906901,6.298658801663306
0.08656764671773427,-0.012772367440852833,-0.011923112222108023,-1.8310604405694861,0.32711534722974855,-0.47407741308617224,15.50399639423077,-15.937513563368055,5.328912143049569
0.09916320932645645,-0.01605849147507959,-0.008997698904385369,-1.667435538624764,0.29038880005251494,-0.4408327847267941,18.549394880022323,-16.204096775428923,5.772346047794118
0.1100713547166356,-0.01861955766941876,-0.005503817865535304,-1.447662434766686,0.2667213502042559,-0.38798549646631864,25.54749959309896,-15.851096754807692,5.7267529296875
0.11853992126224554,-0.020006691039247335,-0.001317020172734642,-1.1305720694601276,0.21235870977316365,-0.30980898955395014,24.098080842391305,-16.705750512295083,4.032579923930921
0.12247305877807342,-0.020130460524307954,0.002185758537553062,-0.842735984374523,0.15202982768139786,-0.22158435454739656,30.596999270721568,-19.02444863108407,-0.22650886304450757
0.1215017572557756,-0.019550511185033672,-0.0004449964903713235,-0.4510942411572618,0.055491528339210415,-0.02133449812311168,41.28011725930607,-16.540447178171643,4.792724609375
0.10727219676590993,-0.015721475875118213,-0.021092855616931527,0.3688732566301461,-0.18314523758659618,1.1903418836024051,27.93448197214227,-15.757536046645221,5.739433913934426
0.09951405377361366,-0.014128130151614869,-0.04671476157697039,1.7830147709585864,-0.6399584948271128,3.6398818170720544,14.951027792008198,-14.088068181818182,6.338705806408898
0.10261541107221207,-0.017448637071110853,-0.04263739738151176,3.4263266396069225,-1.2310692159794916,6.558848307748649,-2.167080078125,-15.2641455078125,10.853263608870968
0.08688888454847861,-0.015039936521500243,-0.013852986236152096,4.3260084841456345,-1.5947613452558977,8.217096697897276,-29.93502125459559,-19.872149800145348,18.728153483072916
0.07597882259590438,-0.010120347049308889,0.023545420697653162,4.312777184362317,-1.6239553514206364,7.915849253822446,-49.04390510110294,-23.120011239681602,25.752923943014707
0.0550971672719504,-0.0033778628306695016,0.05008369396038701,3.4048263496810818,-1.448015381328776,5.808938337351603,-57.3914794921875,-27.970052083333332,31.35670731707317
0.026324499649037096,0.006503238013855352,0.04743062227240827,1.8849618518631552,-0.9702198858607745,2.884859996337779,-62.97355482313368,-30.35905813663564,33.66901951210171
0.01627902298863659,0.010495488646216817,0.022748435926389393,0.6241666920987577,-0.4205777153843806,0.8425811792352063,-65.21912944747741,-29.445488958075494,35.892283472521555
0.024436526993621584,0.0072552697448290075,0.0050432569353313205,0.05275868564284237,-0.10036730786837599,0.04905692543907188,-73.5700731153612,-30.072423986486488,36.2466259765625
0.025716303750724766,0.00672784820282156,0.0007197159281650166,-0.01792882443685964,-0.029434955665996,0.006013847567468568,-66.24866598758972,-31.84646779186321,36.3013134765625
0.025600607657433078,0.006835633411664126,0.0008218553986955821,-0.009528654128729048,-0.03161134139620381,-0.003859339712973396,-59.864501953125,-31.9778662109375,36.82118999094203
0.02561524845588075,0.006818633019444762,0.0007850328810631018,-0.014144057537563162,-0.026628285099555695,-0.020984424862957707,-62.547233857304214,-31.8582373046875,36.1615673828125
0.025620936636531547,0.006891463972899514,0.000987908298251074,-0.013509170812097508,-0.010661548589032304,-0.011872426817340876,-58.06649360306766,-31.8684912109375,35.14556962025316
0.02551113557269032,0.006842616046632233,0.000861067311398478,-0.009966141144291483,-0.030703759140524724,-0.010153494717353061,-55.64192185708142,-31.845052083333332,36.556468525870905
0.02561163197203236,0.006760910131169755,0.0009841639077557793,-0.03628023451779054,-0.029144551170284718,-0.0031968138676106888,-54.30858239462209,-31.778583601409313,37.98190281972164
0.012462504348887547,0.0036678121280556194,0.01281457564012578,0.0471391077259786,-0.05753912193982202,-0.8213863795892208,-54.02615921585648,-31.933731942806602,40.060130049542686
-0.004360091555528403,-0.010206659138767615,0.03027231055635247,0.3376741843928343,-0.245779900509659,-4.940562685018464,-53.64149448327851,-33.89803558142007,42.722500643887365
-0.005724110232856196,-0.03254339262531952,0.046767332987456924,0.9931431012909329,-0.42751533208299913,-12.82470755638295,-52.6488671875,-32.055946499693626,45.579671223958336
0.010855984284097885,-0.017780156865138657,0.03945359660634178,1.7288848536637464,0.008179484141445518,-21.638157826471755,-52.457998046875,-31.832974947415867,52.19351609409116
0.015560440890733511,0.002708322397534094,0.013341837824640696,2.1195588040813416,0.4297797521059267,-26.12616583018206,-52.461220703125,-31.9593115234375,47.16089045392336
0.01324305240147752,0.023639832758568027,-0.01991491439558078,1.8317101046784876,0.7011507003997923,-21.652026200140384,-52.462734375,-31.9414892578125,44.407250425869364
0.007193513659137679,0.04192598004807557,-0.0425736652019174,1.2650569170201729,0.7188641639095289,-12.846293298135317,-51.11985560825893,-31.9566259765625,41.99478774472892
-0.01916914944914086,0.02563479110080259,-0.02905279091769144,0.4940510269478438,0.3905157628101444,-4.905398495437482,-52.6422119140625,-31.723406427556817,40.00483162172379
-0.025147944300945736,0.0020629657887508675,-0.010505093539231403,0.08318912650252101,0.04580049414553258,-0.7539046143986328,-52.594619140625,-30.308899926357583,42.62248746616634
-0.01395392074990446,-0.011157362228327031,-0.0004979210113154438,0.00035472016290443223,-0.037734117359825715,-0.0210423978392895,-53.99813782935049,-31.710605719150642,40.63856724330357
-0.012120146043178315,-0.01171764069290042,-0.0002468519086649399,-0.05489499010055843,-0.024678820601035913,0.003198207741841556,-51.47705362009447,-33.1966552734375,41.07626953125
-0.012375228595373804,-0.011853762212442175,-0.0002868739890742411,-0.025920586069826286,-0.0076133387200924335,0.003877097854079238,-49.78565832450565,-34.58603791267641,38.545613606770836
-0.012371821086411931,-0.011821063875240288,-0.00028738670003343664,-0.020609426890136104,-0.035244166027872316,0.003792153691213695,-47.46905517578125,-36.94021523965372,38.30398794320914
-0.012362404952449767,-0.011874702705821168,-0.00029029206213555337,-0.02367717520676286,-0.03528000732444221,0.003569368572038915,-45.75093518273305,-36.240704230542455,38.4290478515625
-0.012520054003229098,-0.011751711280538661,-0.00017667723925251385,-0.023817976239844323,-0.035803034115662775,0.003546479689931917,-44.3844384765625,-36.498801902488424,38.4290478515625
-0.013361306192205522,-0.012176698914558297,-0.00040899790669264883,-0.023481093783379575,-0.03258407474133054,-0.0010302431935606989,-45.75702439692982,-35.808380998883926,38.88541059351679
-0.025433232215338553,-0.02019301126132995,0.0011196847339525055,-0.022602101815101687,-0.035680240301591906,0.009987489872284915,-47.03562532917837,-36.9234716796875,38.343008003982845
-0.03741301675466166,-0.027042157799474557,-0.0008269378559913307,-0.023151730249886707,-0.05516265467947484,0.019274913207833477,-45.28310639003538,-36.9234716796875,37.985801547181374
-0.027891339457380857,-0.019077059236426844,-0.0010982886026033802,-0.035714821679844626,-0.08425930566955077,0.03478779463077685,-44.750771484375,-36.9030615234375,35.61389414469401
-0.014328669698171887,-0.012053749198889085,0.0008338860806751188,-0.011864925077059206,-0.05890040912754755,0.0577693490667307,-44.78099609375,-36.8780126953125,37.88973127092634
-0.00038853480636004813,-0.002871364482558645,-0.0035292640567898353,-0.09029217576843336,-0.04708852542630315,0.025509593335599375,-44.224599609375,-37.4679443359375,37.8429150390625
0.012259906724337357,0.003750688192388631,0.0005282753990295798,-0.03780268736638398,-0.026748919792434694,0.003985341549948528,-44.22723268995098,-39.485251612311245,37.79048508864183
0.0019621716971343042,-0.004019592883083536,0.0022463019783037254,0.006463284765864325,-0.011472626230332924,0.007814445053029894,-43.35684814453125,-38.01280448107215,38.172698974609375
-0.010093284910631583,-0.010424402400055587,-0.00037294042447844365,-0.014026072197403044,-0.02323371134396927,-0.006339923085429201,-42.61409026501226,-40.60203812210648,37.8640087890625
-0.01156851764418645,-0.011127483818936136,2.2815637684349506e-05,-0.023164526849636814,-0.02384654706541049,-0.019196289184005438,-42.46023506030702,-42.17996017654221,37.8640087890625
-0.011056052864483303,-0.010893601232305239,0.00011845024748258296,-0.012193133561430895,-0.02296426282540354,-0.020443357646412506,-41.26194411057692,-43.86147268194901,37.68478855942235
-0.011261327555162143,-0.01115318391547865,-1.2927640613936018e-05,-0.013663289284951278,-0.022959685048982142,-0.02504113062754374,-42.66947265625,-45.65790283203125,36.093269510472076
-0.01148142704550304,-0.011277119718563797,-0.0001448652607805423,-0.013663289284951278,-0.02297265541550944,-0.020630283516952987,-42.69896484375,-41.98287259615385,37.8299267578125
-0.011515912961210921,-0.011243665883358202,-0.0004968291268653061,-0.013680837427899977,-0.02297723319193084,-0.020613498336741188,-43.52273888221154,-44.48773871527778,37.8688427734375
-0.01186131137252687,-0.011395731840128109,-0.0008380149526978765,-0.01381817072054196,-0.02297723319193084,-0.020506683553575197,-42.67318359375,-44.268101788949274,37.964498267983494
-0.011444630356717089,-0.011084941731445787,-0.0003109328616793728,-0.01835659876222388,-0.023151951658680923,-0.021336776539284754,-42.49792241115196,-47.15706876429116,37.85609718605324
-0.012044786101041835,-0.01158352000488291,-0.011204394665364407,0.01275094321268346,-0.020855717958458978,-0.011206920734799355,-42.5255916819853,-46.451001437205186,39.9971757368608
-0.014824340845075437,-0.01438780133731351,-0.038777062288277694,-0.014829777690401742,-0.02398292064136892,-0.05217482999117974,-41.401015625,-46.683692262883774,36.92588588169643
-0.007237895172310851,-0.008738508894016268,-0.04030292672505861,-0.062451632178073854,-0.03899435690736116,-0.11652783288064211,-41.25917154947917,-45.891357421875,32.695501653997745
-0.00783564928128906,-0.007159928727542441,-0.013821893978697939,-0.13787887734345658,-0.023030628615470894,-0.15209639720019605,-41.40184138371394,-47.792498458059214,27.38341000205592
-0.009628578295236013,-0.007811554786409278,-0.002734897915585692,-0.06718176209777262,-0.023810751565652082,-0.166021013928046,-39.96090877757353,-49.969802024147725,21.199772426060267
-0.0062953144190058844,-0.007169448937447181,0.019453083895382594,-0.025173008865061835,-0.020308066842539926,-0.11489204077272865,-37.73586781819662,-52.06912769990809,18.30918623761433
-0.013698651786154406,-0.013897357150620567,0.03803042410555338,0.005351710444167352,0.005237758167990562,-0.04234800450123792,-27.873523591694077,-55.54826675706608,13.539909811580882
-0.010631673878323096,-0.012014502395702953,0.009204968413342743,0.07154545082656458,-0.018898733716614442,0.005562213878197348,-37.807077118844695,-51.3773980541764,17.43143478094363
-0.010156106633729484,-0.011089626907499837,-0.0005767693105867493,-0.015474105044709582,-0.019278389843439978,-0.017866467957260483,-36.33455850789835,-47.83389497139085,17.594703956886573
-0.010268633686330703,-0.010629082659845267,-0.00020409075778866104,0.010062363400325342,-0.019585100863673748,-0.021121351766513006,-39.39985509072581,-48.6888525390625,18.17170840992647
-0.010258737120141742,-0.010978036144438794,-0.00037529221472809896,0.0037395314752067875,-0.01960341196935934,-0.021209923915008252,-40.711146763392854,-49.655417049632355,15.404201438210228
-0.01026984221930595,-0.01091535533542468,-0.000370250556962659,0.007485274819177806,-0.01914692388384528,-0.020989638966032852,-40.77250788762019,-48.53553442861519,18.44971466064453
-0.010320101685531874,-0.010943998535111491,-0.000364085818048507,0.007322763756218122,-0.029455866565350295,-0.020970564897610348,-41.149527090567126,-44.60438455561156,20.16617000804228
-0.010275245263175137,-0.010963347270119269,-0.0002690693995459049,0.0074852748191778055,-0.021740109655352054,-0.020827488843137155,-42.73705078125,-39.817119140625,21.599055503731343
-0.01026237128818623,-0.010856700080123972,-0.0003287359937646946,0.007462385937070808,-0.02245766944015173,-0.020885113071077557,-43.634630926724135,-35.923675251898366,23.16466022359914
-0.010001454195838344,-0.010787075750331413,-0.0009222849704856241,0.0068571275978881055,-0.020883415791677577,-0.01211759791335996,-43.054287109375,-33.74524546477754,24.749326034330984
-0.013485284585100817,-0.014222130145009833,-0.03250621662038012,0.034344038929273485,-0.0033287090215960535,-0.042629329119929386,-42.73558728448276,-33.01432398745888,27.174221319901317
-0.013128318594458262,-0.011544297616504369,-0.051796521727682614,-0.032564387643542726,-0.06307992797631759,-0.09591563158055356,-46.58875325520833,-34.32933995863971,24.862621307373047
-0.007925999880832436,-0.008069851216614679,-0.014804638813440225,-0.010644474623859342,-0.042911574676220844,-0.11232161931211275,-52.23185729980469,-33.53548043673156,23.741168105811404
-0.009898093465115115,-0.010194892996720111,-0.0018450485513580531,-0.018044710825036104,-0.09854263217784438,-0.13610436976402995,-51.086646295362904,-32.34561282641267,24.1069287109375
-0.006538708369483191,-0.0074397534104433845,0.02954621417889955,-0.05738680602149738,-0.12284677383023274,-0.11681089205603197,-57.140033807455154,-30.882076948116985,24.1648388671875
-0.006785861009317486,-0.007551756340220298,0.049259741837345945,0.02027591355250706,-0.03740415036078348,-0.08665616890674037,-49.88552773965372,-31.65519787016369,24.1992138671875
-0.011754399450046062,-0.012200976053741253,0.013235670033875602,0.011842477273787285,-0.0500281921752414,-0.04037753607707999,-43.922999790736604,-30.298409598214285,24.1512158203125
-0.00947864854006553,-0.009802479459347606,-0.0006105138568427066,0.013480636005737451,0.0027351564787873738,-0.015256065303606601,-32.63148498535156,-29.878806192366802,24.1486279296875
-0.00907850603983904,-0.009496108460203595,8.804439892801288e-05,0.013480636005737451,-0.019573494391358606,-0.0126664530371003,-26.0739086254223,-28.64410189924569,24.1414013671875
-0.009229360684177982,-0.009571605578783478,-7.022919400605785e-05,0.013480636005737451,-0.015342203674577363,-0.00840201814543374,-22.39472932635613,-28.8110205078125,24.22683536305147
-0.009230467238380025,-0.009573139403165612,-4.2884609515566956e-05,0.01361644337290564,-0.0461290186510857,-0.010912311944645377,-22.754613415948278,-28.8210791015625,23.83221661603009
-0.00919147425876752,-0.00964004468710267,-4.8489722742225865e-05,0.013453169347209056,-0.021241635519047515,0.006893990602463507,-21.75556557865466,-28.8761572265625,23.9690380859375
-0.009321379959802712,-0.009589533090280739,-0.0003535144869959973,0.013650013733329231,-0.022806269502453173,-0.016233345524060312,-18.87300851004464,-28.7889013671875,25.658841274752476
-0.007634886318552145,-0.008838749586239392,0.00010118262216237977,-0.0005740888763928778,-0.026895690661043397,-0.022081522831528314,-16.528473235748628,-28.06293367084704,29.09509981595553
0.009095262916959095,-0.00033869441816461405,3.166026077177554e-05,0.008618979566279356,-0.009337421867292705,-0.03904805887319674,-20.7116845703125,-29.61962648901609,26.283992451832706
0.016911257560063068,0.006399987161178722,0.001039637526075091,0.045780365223326076,0.024887073398313905,-0.06337984862819296,-14.212677711664243,-27.182595432394802,23.958193359375
-0.0023705389867974326,-0.005597631763664618,0.0002846970020651542,0.09184884521351078,0.08473588552109022,-0.06556192205572675,-3.557736864276961,-25.9796875,22.175673264723557
-0.011406656697286853,-0.00945530564287235,0.00026334539205727337,0.026831174148787836,0.054704572190958305,-0.08181149288918729,11.02205105002867,-23.726218580163042,22.2529248046875
-0.02874694418164611,-0.017245533616138137,9.975113542735758e-05,0.012347121341593662,0.03373390911587872,-0.06328295236060666,20.440648813716702,-19.682856161127646,22.330824908088236
-0.03562185672506922,-0.025081689598587645,-0.0010708813821200902,0.018220520025056173,-0.011072272318455222,-0.060742286446729896,27.76394560842803,-24.48627721415877,21.367334653253426
-0.015502167424542936,-0.012854921109652962,-0.0005166478469189992,0.0014050812113599758,-0.024005944327456764,-0.03659532006161733,33.15367328689759,-26.166047469429348,22.391127366286057
-0.011208556711867927,-0.009829378643147015,-0.0003214253808569888,0.0258474990081484,-0.016276114519011283,-0.02792649616992702,32.115501547759436,-27.706179411514945,22.2345166015625
-0.011047734161295094,-0.009713681806839323,-0.00021794226769951657,0.024961699270607575,-0.01773973136929764,-0.02746150518359556,34.66153368537809,-27.15831972947761,22.2509716796875
-0.011162620468937004,-0.00981327193461348,-0.0003225900354717567,0.02514938810388496,-0.016491015689904756,-0.015482306894131263,34.35634494357639,-26.09590480638587,22.18103718307783
-0.011243025590142317,-0.009879545572296528,-0.000504987868892351,0.025078432569353267,-0.016922360911893006,-0.004794031768579307,37.409768497242645,-27.63286777712264,22.584451966366526
-0.01181432538834798,-0.01070085146641433,0.010983697012237977,0.025181432538834758,-0.04121926158948379,-0.008149668220204083,36.5621103140024,-28.0375830078125,20.13655061541863
-0.013909411673564586,-0.013184873371462456,0.04292762744918524,0.02563158642254985,-0.0010731364341703773,0.013517749266809986,36.45249656394676,-28.0480322265625,16.94929958034206
-0.008049773720019204,-0.0077695513016143814,0.036176274910733386,0.023836152705046937,-0.030970157490323686,0.06916280098879964,35.318706643992456,-28.0075048828125,20.074088981559683
-0.011165237733926966,-0.013947805436589843,0.005333243812372257,0.03608296020822339,0.008920579635346282,0.11038468581194487,36.736821831597226,-28.0075048828125,21.976284555288462
-0.01060047280213907,-0.012043861201818851,-0.010191192358165102,0.025569050521297987,0.050988768179636476,0.11865993224890896,38.266530539772724,-28.00497954746462,23.69278364039179
-0.009017649871313567,-0.010847232966359265,-0.04233886197076553,0.016308573040574717,-0.0022626064297858197,0.07056785409100615,38.80798109522406,-28.429519952512255,25.10771484375
-0.014713683325860153,-0.0128173961818187,-0.035904501480147566,0.025713980529190907,0.08365767197180085,0.013347872458330164,38.914306640625,-28.762228447094298,25.05416570925245
-0.011906345234098711,-0.011346591930227863,-0.0051012054811241745,0.025851313821832894,0.01994356777906629,-0.007305921077365283,40.481686961894134,-29.855726606390448,24.05015814482276
-0.011666091965789865,-0.011207006015249895,-0.0006767943727566219,0.025851313821832894,0.025104735094415367,-0.0023840296639911895,39.16550332991803,-28.768078219506048,26.952258051658163
-0.011574176843518698,-0.0111617299960222,-0.00017108902475265034,0.025851313821832894,0.0031285502959431514,-0.0029692220831934314,38.66513329221491,-28.30138469192217,29.034415910050676
-0.011564681539353562,-0.011211592007022795,-0.00017738578447816855,0.025851313821832894,-0.007017668855566052,-0.0015193962734552104,37.34778814206178,-27.18427900834517,27.230846405029297
-0.01151744965139534,-0.011236624430899109,-0.00013074429641567924,0.025851313821832894,-0.01459702692495493,-0.004596412724317271,38.96892193001761,-28.84578560494088,26.580075412326387
-0.011711464932052666,-0.011216805838895085,-0.00019806991371627226,0.025755180516983504,-0.020617575211539636,-0.0004101582437334403,40.688882517260176,-30.92986863659274,24.923410373263888
-0.011236152569229815,-0.011088308279750837,-0.0003745780816063622,0.025804010132145103,-0.023551331315478468,-0.018115186102795566,43.315016726230056,-32.20990728021978,26.831260681152344
-0.0064398791467024305,-0.010017365031891781,0.0007146369357761652,0.02570253608813741,-0.012820360052116848,2.5217591631824705,41.44217211579623,-33.98978963475319,29.98367576228762
-0.006891614123966138,-0.007888213691800117,0.0003117616058020378,0.025064073909845882,-0.03881934770276402,11.017667394024476,41.890537109375,-35.24045586340206,28.77788468903186
-0.012606630654825436,-0.005556178359211846,-0.0008167684341577334,0.026026283783707367,-0.02795037690359197,12.455331122948708,41.869248046875,-36.66266808143029,28.752130246629903
-0.014476806497955777,-0.0032986884670552228,-0.0006404679504784885,0.041384958571123336,-0.028611713003936824,12.426123365389737,41.869248046875,-36.57396052433894,28.7705029296875
-0.01946023499252291,-0.0018722626538818126,-0.0018327878323955518,0.025850257190419904,-0.02866524364334655,9.90757873775445,41.869248046875,-37.005006820436506,28.780902569110577
-0.02118308771917222,-0.002211390549831838,-0.0008116685825507188,0.025260780663472353,-0.02806925780115263,1.413175832392346,41.869248046875,-36.6620947265625,29.67801789314516
-0.016539062384193098,-0.002077178121963755,-0.0002674477205558905,0.024984241885010902,-0.032433072790430284,-0.020068264022611627,41.855966796875,-36.71239764873798,35.07549939184132
-0.0162070746264752,-0.0021243202002013723,-0.0005463390273472064,0.025567491683706124,-0.02809527046335414,-0.009041108432264132,41.84166015625,-36.11060078938802,27.331271158854168
-0.016154622520494117,-0.002114020672768756,-0.00039860391691182823,0.02574678792687761,-0.02860332041383093,-0.008832590716269385,42.204293118990385,-38.352701822916664,29.317683807791095
-0.01623512701131196,-0.00218931154602405,-0.000469605260034517,0.02574678792687761,-0.028651451624641052,-0.009666403243742735,41.48109759706439,-37.92328657670455,28.743015834263392
-0.01610583608613793,-0.0020927651711671684,-0.00035174796259016466,0.02574678792687761,-0.028559068575090732,-0.006673706032941495,43.29458163646942,-37.9823095703125,30.312652923248628
-0.0164286690878017,-0.0018217709798568104,-0.00023260706248467004,0.025510269478438628,-0.028706041110159664,0.005986286656308374,47.47414170302354,-38.01019287109375,29.49470027043269
-0.023107616176618474,0.014224115726187885,0.0005243374940235244,0.028597094137594415,-0.0240845973082674,1.1821530045472577,59.53864722158394,-38.410757559317126,36.15347548662606
-0.025775886151874136,0.036234206084451714,0.00013463388125551845,-0.011400091944608984,-0.043194031061417594,6.346587496566667,44.329132080078125,-39.80578897165697,30.749648206815944
-0.02029907158334382,0.026135270241401356,-0.0014198670189120442,0.01832623562461816,-0.06289773247474591,13.437125995666372,42.0045716528799,-38.335457938058035,28.401858723958334
-0.024347697933341975,0.008923729457602265,-0.00014508499404877994,0.01908154545731983,-0.09201125737389348,16.746170155949585,41.96938668045343,-38.01302379261364,27.243607954545453
-0.021612485732596765,-0.009325333414715968,-0.0004462557882817786,0.032977769990713626,-0.06440812211981561,16.003048265022738,41.99732421875,-38.1648779296875,27.556707643995097
-0.018889040389436815,-0.02728738921332254,-0.00017175817133080018,0.1130852415207644,-0.04274897554912504,11.093175527207253,42.0103125,-38.2094580078125,27.5121533203125
-0.02473459796223548,-0.014501980651264939,0.0006599017303995443,0.041290318812927884,-0.036537029372948775,3.9088017670216995,42.02388671875,-38.2094580078125,25.85693359375
-0.02104431653798024,0.006150724814600012,-8.6397383063591e-05,0.0011415335437980267,-0.029267441328165465,0.3319592120120854,42.017783203125,-38.2094580078125,24.845895867598685
-0.01967416743810671,0.011417486318355258,-0.00028289241353438813,0.021236929061111885,-0.025038758507034457,0.012446967195543843,40.88916015625,-38.2094580078125,20.95459449404762
-0.01972758441788042,0.011240071898478175,-0.00026559648426757477,0.018762627033295655,-0.022358444185460926,-0.00985031741926914,39.928931451612904,-38.2094580078125,16.344569414511493
-0.019674168269848063,0.011241969054231339,-0.0002621539963986828,0.019010589922788132,-0.025765099032563188,-0.015265892513809585,40.63869738222948,-38.2094580078125,14.632678803943453
-0.01968342295602278,0.01116250392032976,-0.0003227637562180122,0.019010589922788132,-0.02576662495803699,-0.015362788781395874,40.335361328125,-38.2094580078125,13.050819133890085
-0.019737949766533355,0.011445729722173224,-0.0006538095282323625,0.019010589922788132,-0.02576662495803699,-0.01601399589368189,40.305771484375,-38.2069189453125,11.19366455078125
-0.01952792384927608,0.011073133223115865,-0.0004644408500420741,0.019010589922788132,-0.02576662495803699,-0.014839413298610014,40.308896484375,-38.5561312971444,11.2838330078125
-0.01965981834179609,0.011209818429576284,-0.0004963561952046761,0.019010589922788132,-0.02576662495803699,-0.014834164813115983,40.14565982458726,-38.3703955078125,10.106513977050781
-0.02407885738700517,0.010540818506424103,-5.3299679196511904e-05,0.019010589922788132,-0.02576662495803699,-0.013460748905148432,38.137918893914474,-37.1965576171875,13.55157470703125
-0.04814642874749686,0.010708746892726244,0.0006920491006609624,0.019034241767632028,-0.02576662495803699,-0.005268059239778616,35.51088959316038,-41.84642941782165,10.350916708669354
-0.03259838007751696,0.010565680726870233,-0.0027566731068545576,0.01832519115151027,-0.02576662495803699,-0.02334680934967446,30.549994427224863,-50.17875096055328,7.09203278616573
-0.021543587145603765,0.010615948973052111,-0.0015886104922634217,0.019286019470809004,-0.02576662495803699,-0.021459669224569853,35.99221281828704,-75.2983740234375,2.50341796875
-0.017775942869350206,0.010725423773440115,-0.0011067756398602188,0.006677793954582465,-0.02576662495803699,-0.025553698476353724,38.650425502232146,-102.2703955078125,-0.12987573596014493
0.007011743522446335,0.010798877587750076,-0.0024193017834546054,0.023124502952216946,-0.02576662495803699,-0.04071131393665499,40.39441353934152,-121.97920365767045,-5.838077518857759
-0.008280975371562822,0.011365293418513835,0.0010889604545156978,0.027175824399402956,-0.02574449903866689,-0.020405567714106707,40.60954680266204,-128.49036865234376,-0.7806376472848361
-0.01915526233749371,0.010962736899929762,5.199110668035111e-05,0.020598315378276884,-0.02574678792687759,-0.020294659201001444,41.4495703125,-125.47836171025816,0.0110302734375
-0.0193484109098083,0.011006400855803204,-0.00046763429587599664,0.020598315378276884,-0.025721610156559892,-0.010117183923612133,42.06280637254902,-123.42530153508773,0.0253369140625
-0.019173496709087356,0.01093834313959688,-0.00018477618956588027,0.020549485763115286,-0.02572923978392889,-0.012543256995171448,42.92561436906646,-123.5415380859375,0.10051684109669812
-0.019203942033980823,0.011081365215524535,-0.0003037292488263267,0.020023804437391237,-0.02574602496414069,-0.011969359416486053,41.9265234375,-123.5795751953125,-0.4094016335227273
-0.01941914160548757,0.010895010223700626,-0.0006100645349094846,0.025762186149828392,-0.0249214441828199,-0.012729360062760374,41.8642578125,-123.75980631510417,-0.1927783203125
-0.028864623554185554,0.01086132446876195,-0.0019307990815908707,-0.016832111291777467,-0.004957658934114097,-0.001578122395656032,40.854323928420605,-122.40561005563447,2.764608354710821
-0.019419501927919247,0.010913395251998066,-0.00028878330332336624,-0.040005260237578166,-0.022616014962131076,-0.01245774312120297,43.83535236957645,-116.70363735145247,3.891736260775862
-0.018964724265266842,0.010875698110904213,-0.00044254711070486563,-0.050948933185634725,-0.023300729392376415,-0.019424021477849815,54.065757637593286,-104.2732275390625,3.1729451497395833
-0.018488335772136974,0.01087307471589357,-0.0006127006938798004,-0.08545147481238143,-0.02333124790185241,-0.010812477578972362,75.70712547971492,-85.07557056568287,6.47314453125
-0.0087975804925687,0.010916698032912469,0.0008623279001766222,-0.02398893926562287,-0.023364055299539107,-0.01447196356665785,95.62464086560236,-74.29764539930555,13.893882637593284
-0.018161746574297262,0.010734347097730941,-0.0008319581370654448,0.007852179185518962,-0.023364055299539107,-0.009130294152191147,107.7548000529661,-63.76735728870739,17.91092091686321
-0.01792672355783778,0.010878377081154212,-0.00043143295499615896,-0.019800617028773372,-0.023364055299539107,0.009620882258967576,113.8671829451376,-66.33765651755137,19.078387920673077
-0.01803498687991998,0.010892922757652463,-0.0004014368832342516,-0.013643868143283755,-0.023364055299539107,-0.00777376374604528,108.91243333082933,-65.193115234375,18.8977490234375
-0.018017344279305344,0.010881887264625944,-0.0002955762670058279,-0.010853780734682203,-0.023364055299539107,-0.009668797875911704,106.06428924978596,-66.98335161601027,18.871716069240197
-0.018106344798120007,0.010917949969990083,-0.0005861808119956598,-0.017536051929054247,-0.023364055299539107,-0.009884464835329999,105.256845703125,-66.33509172712054,19.28565835053066
-0.017769027312500886,0.010890151676992043,-0.0004295550636074786,-0.013343673294996234,-0.023364055299539107,-0.00885777297460318,105.28052734375,-66.4737158203125,23.950192742598684
-0.017968193844181825,0.010885715362838097,-0.0004906658241163089,-0.0338515790052655,-0.023365581225012907,-0.009481872005371223,105.270615234375,-66.4639990234375,27.765690104166666
-0.017927364009763944,0.010898391674550563,-0.00046994315777995616,0.006797896527967626,-0.015979692341299673,-0.009872737815485057,105.287998046875,-66.4639990234375,21.028340447809278
-0.018247391554605728,0.010886196478163959,-0.0020517622985958836,-0.0763448012183857,-0.026798913541062595,-0.00026299094340109623,105.293515625,-66.4639990234375,15.853194962686567
-0.022614250229038374,0.011225551622058728,-0.029156395153660548,-0.008082585736708666,-0.027052785923753608,-0.025026461965023363,105.337802734375,-66.4639990234375,11.843151461693548
-0.01834269437747322,0.011063245418786,-0.049029987487410984,-0.10856620651536264,-0.02653102148906136,-0.058447317680195426,105.337802734375,-66.4639990234375,10.815252565870098
-0.012959780793325626,0.0106064129561245,-0.020989471114230634,-0.1336617214713272,-0.029452381251581967,-0.08284531693472089,105.337802734375,-66.4639990234375,10.673281069155093
-0.015931839370255434,0.01110515774113291,0.0003605028379537807,-0.12957640308847312,-0.026832483901486185,-0.12375419084531912,105.337802734375,-66.27362837357954,10.953467735877403
-0.011554989267657452,0.010993188759787364,0.029639161351359654,-0.1375356867981526,-0.026813409833063687,-0.09505932259680198,105.40487611060048,-66.4713720703125,10.9343701171875
-0.014175002899258353,0.01172836814552411,0.046859303567613815,-0.018167383729075032,-0.026769920957060392,-0.08773271830711481,105.329501953125,-66.9985103883605,10.689522221403301
-0.02020229116416729,0.012215882486299323,0.020755772576067432,-0.0284847953832386,-0.026724143192846394,-0.050768044356638106,103.20785850335744,-68.98991963949548,8.491626557849703
-0.01627652710459797,0.01201763371445561,-0.0004749305093538126,0.01482346585338837,-0.02747578683257103,-0.002051973885368998,105.33702895220588,-65.38738371196546,3.636947332643995
-0.015923462907526092,0.01204769432660904,-0.0001420780731290247,0.002505638988228186,-0.026859950560014584,-0.013983322619039385,105.386240234375,-61.35216772255777,7.062220743257705
-0.01591220294339281,0.012042555009613282,-0.00026575518051685147,0.004604549477439876,-0.026859950560014584,-0.021733599086576127,105.399228515625,-55.69879150390625,9.997968531366604
-0.01593341539421432,0.012054693864136249,-0.0002658162175358055,0.003568224127933588,-0.026859950560014584,-0.01988944669942315,105.385361328125,-55.23928653492647,11.400233677455358
-0.015781486770576877,0.012042677083651185,-0.00026673177282008416,0.003620105594042786,-0.02687368388927878,-0.019939802240058545,105.388095703125,-55.3497844192217,13.175981941869704
-0.015932481788666318,0.012040875653829096,-0.0002687704092530786,0.003894009216589855,-0.026859187597277682,-0.019917676320688443,105.37828125,-54.75188869900174,14.863977768841911
-0.014358016296884017,0.012089025979971094,-0.00033493203371420024,-0.005138973662526296,-0.022629209858834855,-0.019894787438581446,106.64902669270833,-55.40610160079657,15.433530745967742
0.0039072872096926545,0.012608601361623737,-0.0008979204687641344,0.05031758323923458,-0.02615309101636803,-0.019761268959623962,109.52094786844135,-55.350608543113424,15.923830694901316
0.016919195532090165,0.01211632826914457,0.0008585293995734196,0.08134041108432262,-0.037732887310968834,-0.019549552558343564,115.67270051146583,-56.942614368556704,17.580742096232477
-0.0038108072145756305,0.011532840205084332,0.0005685430762777734,0.07679586169011503,-0.053250381882927744,-0.019765846736045364,114.17958026066005,-54.77175071022727,12.428923708100559
-0.0157261244544816,0.011895919675283011,-4.776056972663136e-05,0.08789356592230811,-0.08099048632730255,-0.03059135179675659,129.0903811482988,-52.61002894810268,14.88832022290711
-0.031210398266548617,0.011863964043211772,0.00038559761934216523,0.06363041104072473,-0.06024059842294346,-0.022121112704855447,118.446727951138,-50.79251693131088,17.168949672154017
-0.04764025174816908,0.012248421611005993,-0.001275098827030292,0.03745516126684677,-0.04596593723516382,-0.021353307398584258,111.25613153176229,-48.67350408380682,16.986107919730394
-0.02568481460005489,0.012791925638516137,-0.000479118338213165,0.0380228583635975,-0.03318242753200398,-0.00712389206911132,104.84335214120371,-42.04177487551511,16.96832744891827
-0.017301643930377066,0.013460678722540684,-0.00030601171038793264,0.017581350589132273,-0.02696142460402226,0.008942380140381453,89.579148625753,-34.812508719308035,17.963997395833335
-0.017251659131263072,0.013225987273781496,-0.0003943003392340363,0.023501945106177452,-0.027119357890560553,-0.0033552317385899806,84.879404296875,-26.11804745802239,19.733361998600746
-0.017302149113437252,0.013481520259986345,-0.00039450666829417497,0.023654612453825767,-0.02714835047456275,-0.018272908005718427,84.36346794577206,-18.75234847530242,21.630822523584907
-0.01726524944521705,0.013380386093054279,-0.0003806998552463776,-0.009762484990356502,-0.027860401797976116,-0.011874003469896909,69.03354116586539,-22.430054488455415,21.80419921875
-0.01731323334394759,0.013263532695216964,-0.0004076466716684906,0.004771551616509966,-0.02514893481425887,-0.01199472792748799,53.95103236607143,-30.5495947265625,21.6803662109375
-0.017462588468997314,0.01337188283481806,-0.0006405856006367319,-0.017868242905294224,-0.013732584910309016,-0.006941742284751229,61.435839600824,-31.0118505859375,21.294881184895832
-0.02238824182866904,0.015589831232642544,-0.004754808191167798,0.39712271492660306,0.005564747767268596,-0.013675780074901122,78.2718359375,-31.0118505859375,21.7957470703125
-0.043536787621692524,0.023904793257110386,-0.019831904049806063,5.540139316995758,0.17485948554069225,-0.054898083013736665,82.15466547947304,-31.0118505859375,23.37545166015625
-0.07594358714560379,0.014176247913590317,-0.01007324322593796,11.242209997863702,0.06302532863540225,-0.028402314946322612,87.73529628537736,-32.82370476973684,24.1596630859375
-0.12616805688650165,0.012242817468794766,-0.01312168316622479,11.812066798561402,0.04132068849757376,-0.02566903354662377,106.63597708037405,-43.26045109675481,24.1538037109375
-0.17327537827692488,0.00941381331988372,-0.017793175485460087,11.320604351587317,0.02398366551277637,0.004872922532779286,117.47847918610074,-51.2408641870471,24.25180951286765
-0.2036631342509231,0.0006005808689636887,-0.010738382257410403,5.952734305856502,-0.13923510032221637,0.06730374325751969,121.5257017846201,-53.125006598395274,23.9783154296875
-0.22385621875667588,0.009875301370281022,-0.02848447523422942,0.469584337900937,-0.009601192441397502,0.007833541876481389,121.79357192095588,-58.32810280539773,23.9736767578125
-0.22573054021152708,0.01184348519705963,-0.03277913903562983,0.0027051388810170585,-0.02131827805258798,-0.0007862966806034551,122.841328125,-54.06499829338592,24.0326611328125
-0.22590088564714503,0.01207981200598158,-0.03323978617296083,-0.004552751243629225,-0.014952391125217387,-0.0022077852717673116,121.522958984375,-51.41685485839844,24.0136181640625
-0.22589716238898894,0.012063869136631314,-0.0322683749851146,-0.005060121463667675,-0.014599902340769631,-0.0026675818306879867,121.5218359375,-50.102127640335645,23.9956982421875
-0.22592180218841193,0.012058680990020392,-0.03230696279793681,-0.004610736411633618,-0.03285054322946861,-0.011325625502283781,121.524130859375,-50.02750172334559,24.29750608048349
-0.22589402447584467,0.012187078463087801,-0.03142814416943862,-0.004313180944242646,-0.00013964719602437733,-0.005615779744925087,121.5007421875,-50.0428076171875,26.351743451286765
-0.22582562099297848,0.012108697540442838,-0.03141604663228234,-0.01260948515274512,-0.007065645313882833,-0.003817730894964246,121.499716796875,-50.0428076171875,29.36247996794872
-0.22628785704412074,0.011862660985137441,-0.031248159820251604,-0.0004742945277629333,-0.00990368019314822,-0.004637933098732064,121.499716796875,-50.0428076171875,26.039991590711807
-0.2314249555955687,0.017868130055966613,-0.029557042146061432,-0.38956587420270383,-0.08895062105166779,1.0853063295388656,121.499716796875,-50.0667822265625,24.057842902417452
-0.23014256782738726,0.03756098513748583,-0.023775906773732633,-2.786594134342479,-0.4498426770836512,7.633976485488449,121.499716796875,-50.0300634765625,24.009601299579327
-0.2057591576891384,0.06054614223526565,-0.018070201727347506,-7.075042115543077,0.2135404522843104,19.91395558030946,121.499716796875,-46.9324072265625,23.863486550071023
-0.16252642963957634,0.05709752937705735,-0.015457066673900536,-9.947248908963285,2.1914656514175848,29.823298821985535,121.499716796875,-46.634784050707545,22.74671378968254
-0.11097490524002804,0.04290874355296482,-0.014196028165592102,-10.304520045574307,3.28884041332833,32.033444824795495,121.499716796875,-45.0853759765625,20.828969918045342
-0.05681248573259677,0.02871784417249057,-0.012769269895524822,-7.68221091341899,3.75070248855931,24.91939550462355,121.499716796875,-46.7438818359375,18.09190214664564
-0.026406113467818185,0.014615431823036987,-0.010676797794528908,-3.365653096102786,2.75624805444502,12.4526629688406,121.499716796875,-46.7438818359375,15.228882861738445
-0.015197299722281517,0.024941996520889874,-0.005319632557145776,-0.6912062440870386,0.8020273445844904,3.0442505417035437,121.499716796875,-46.7438818359375,18.357593805017604
-0.007813204526727234,0.03563686635944695,-0.000815119228635558,-0.025919419095571307,-0.004943937005858538,0.060211722159489736,121.499716796875,-46.7438818359375,19.549639533547793
-0.006684135774501029,0.036725743604173855,-0.00025940536160973417,0.00256363345193604,-0.0263290434105074,-0.007979404542638869,121.499716796875,-46.7438818359375,20.968841854888613
-0.00688915677358313,0.03661923772392952,-0.0006970116150954266,0.0057237913323842544,-0.020137578637522024,-0.013277993102816833,121.499716796875,-46.7438818359375,23.231242290296052
-0.006750515122905867,0.03690492344940536,0.000936496726441091,-0.012929466274867109,-0.017036072333227188,-0.0021655816945284775,121.500205078125,-46.7438818359375,27.0409685887328
-0.0069141702134651855,0.03675466514102772,-0.0001431123885726464,0.016101680763722793,-0.007466295640238541,-0.0001847358849067761,121.518125,-46.7438818359375,29.47658889358108
-0.004989151280251428,0.036276967370540696,0.00025323704281200943,0.012877371446537009,-0.026094470046082858,0.00031540103649133896,120.70042709157437,-46.659495634191174,32.97033171958112
0.015420797753837647,0.02717834406567579,-0.0017027916058539154,0.014986631802902717,-0.04604518265327915,0.011773685484564526,122.80341569767442,-46.7221533203125,30.675035264756943
0.018823330790124146,0.017781420886312953,-0.0017154820398570397,0.04074264201615635,-0.09461229461630008,0.03984572893459877,125.07999971487226,-46.7898779296875,28.670078234726123
-0.001376162171768926,0.03284524063844718,-0.0016636005737478414,0.014377094707940345,-0.10760464033936579,0.04613811151463356,128.05805490240695,-49.389677348889805,30.295703832653984
-0.007622633935173947,0.03794113589892265,-0.002011302747973658,0.009729148228400502,-0.09328196050904868,0.06834556616921492,132.1867163521903,-46.86383176317402,32.31264482918432
-0.028292950834681186,0.048597283852656596,-0.0017714774010435996,0.010344859157078737,-0.07516871482554163,0.053660122989593134,145.42601153867466,-44.72054561491935,33.21283897986779
-0.032280926541947655,0.05667628418596658,-0.0010717616838384714,0.01022202215643785,-0.03390077844260731,0.03692080724231968,132.74773744095202,-42.50604538690476,32.910188494988205
-0.01244981597338782,0.04166184270760212,-0.001252328831553847,0.010626392406994816,0.005350935763101056,0.0163862778608559,125.99066435401119,-40.53919099506579,33.48594637784091
-0.0068806427587693045,0.038246078371532294,-0.00039614952784641593,0.010527207251197825,-0.013644708207835681,0.003969782673191255,109.51295327240567,-38.05394639328063,34.5304638671875
-0.007114879917913408,0.038126612972585995,0.00022239910127123488,0.006166277145475821,-0.013538773766289182,-0.0005832040920696981,83.2862189797794,-31.59381191972373,34.78646790747549
-0.007680971709341669,0.03819026882111688,-0.000463284664391808,-0.012191547034722304,-0.014123591901884652,-0.01149403363139741,66.32676630434783,-26.60205078125,34.9244223540684
-0.0069359106456795775,0.03817454239842613,-0.00030410725281338575,0.006239254941455321,-0.013397409727112633,0.0015638105200459019,52.92422250600961,-26.6219580078125,34.670559353298614
-0.007368410901211542,0.039120165191509355,0.0032559953611866477,0.016892355855718327,-0.019771525358701407,0.0029265751910676346,52.43921875,-27.040325164794922,37.45878295898437
-0.007695944090090591,0.043711294900357,0.02271213110751675,0.06652681634499553,-0.009081163975951368,0.008944530065818199,52.4323828125,-26.021316827512255,37.15269925301535
-0.005487371059297415,0.038204215132339785,0.04100444936835328,0.1850656626675451,-0.05213623697387844,0.02495807792247422,52.379384957107845,-23.571437461703432,42.51212239583333
-0.006580571916867527,0.03238660613046425,0.0225947325052645,0.20986170420052064,-0.020481996473017693,0.06400139689107402,52.671396484375,-23.0890478515625,36.864029422883064
-0.008273584511530468,0.035432734153263895,-0.0009731986449780913,0.26542631566410885,0.01587373829183919,0.10637379671164257,52.671396484375,-23.0896826171875,35.0457958984375
-0.010436382185275834,0.03298154896982751,-0.022878579058198664,0.16193139293743558,-0.01599034051957383,0.04844167322158304,51.07262762661638,-22.1275244140625,34.51844075520833
-0.013242452802526646,0.03872932233399552,-0.040428178278360996,0.047471412174195496,-0.054582872258938556,0.004493668862546062,52.6995703125,-22.10110294117647,35.1124951171875
-0.013269848544960645,0.04513406661532374,-0.02931412701803631,-0.0034344601740085422,-0.13896670430616168,-0.004267021698660216,52.6995703125,-22.1440771484375,35.0881298828125
-0.012677345884352886,0.04382894901619898,-0.007096212652973895,-0.03077410199285862,-0.05685266927522851,-0.006129956789380973,52.6995703125,-22.1587744140625,35.626346842447916
-0.01190458331496566,0.039141507030535705,-0.0004695655938581222,-0.0022947194259032066,-0.00557591120190862,-0.006895163534330606,52.6995703125,-22.1654150390625,34.88747934194711
-0.011710581604998285,0.03924229516630402,-0.0006685491768300163,-0.007991810268221768,-0.022184006266467216,-0.021780583361308607,52.6995703125,-22.221900353064903,31.69929700020032
-0.011696545069969505,0.03918183107466437,-0.0005835727186719168,0.011024811548203952,-0.01553300576799823,-0.009373434988320394,52.6995703125,-21.8965673828125,26.72365067644817
-0.011497858267130914,0.039269372059868565,-0.0007904680522068611,0.007419214214205207,-0.015026350323576455,-0.006124371249344531,52.6995703125,-20.87553458378233,22.167638050426138
-0.011672271197998777,0.03915254512631137,-0.00048147822549882954,0.007083826433324385,-0.016091494491408984,0.0021264297658598733,52.6995703125,-16.7099296755907,27.25947265625
-0.011676970553228727,0.03917628395325465,-0.00054517266540324,0.00768898586993009,-0.017293373234788408,-0.0037838096532819697,52.6995703125,-13.653621053200691,27.873484485554247
-0.01174862563604281,0.039230282209016865,-0.0005491345725061466,0.008277230140079939,-0.016497390667439746,-0.0033527893629750434,52.6995703125,-9.805642578125,32.51887713738208
-0.010044884007865013,0.04401318399609359,0.0008283175863808991,0.025599765973252597,-0.03362592247846459,-0.44740493484298227,52.6995703125,-5.237441344830975,43.2724072265625
-0.0047928728138695,0.062391074525682835,-0.000626713139254656,0.08573950836476438,-0.002508014390297588,-8.307053361613821,52.6995703125,7.781245790678879,57.56418497054303
-0.005910309762871135,0.04116306039613021,-0.0020699606311226334,0.019212939946464603,0.053507728380659064,-19.668101062044133,52.6995703125,28.4084130859375,66.01461356026786
-0.008083767922892244,0.030981353190710114,-0.002231049531540734,-0.00356395153660693,0.15219365055775888,-21.58033396052783,52.71919921875,45.62515113467262,68.01731962316177
-0.011426104814923137,0.023127134006775053,-0.00252907474921987,-0.00314355906857507,0.1922311864288548,-20.975503834181204,55.70845591871044,52.527263772898706,72.16695914591165
-0.018507671195683587,-0.0002861725987688579,-0.0022582544090767385,-0.0034800256355479353,0.09610883742369053,-12.462407834101382,52.60484375,53.126013413915096,68.25436314174107
-0.020270589477382844,0.014916287728507298,-0.0010285938744427866,-0.018815283072444244,-0.0001160964952014889,-1.518204824976348,47.56002103365385,53.0085107421875,67.19121375450722
-0.019846282298515882,0.022691668010934307,-0.0006693070828937873,-0.00215475936155276,-0.014057739012131842,0.004458484953477201,40.860079070060486,53.7839950933689,64.5982510653409
-0.019846252536477045,0.022753872504375616,-0.0006217787713246801,-0.0012712485122226478,-0.01994842371898551,-0.0026584015362179714,37.02272978871458,57.242816125561376,63.82290884164664
-0.01973471945063034,0.022884151738029067,-0.0008737760432092766,-0.0016969817194128062,-0.01658665730765703,-0.0023641926328317963,30.84078798965669,46.539242788461536,61.46408236228814
-0.01985114626923185,0.02278574952072063,-0.0008777949120257648,0.010181345022520844,-0.016976531266212895,-0.0023215011276888253,34.84368662426254,28.1457666015625,51.37132013494318
-0.01987528524729489,0.022752341098797944,-0.0008606471001131336,0.0032958464308603043,-0.01700552385021509,-0.002857439404923592,38.99875161082474,10.651846102741368,44.35522939644608
-0.019852062699103876,0.022703033103863155,-0.0006364782600196286,0.004815192473058431,-0.017032227546006588,-0.0076624698454325095,45.969621658325195,-7.522815335181452,32.74364141208022
-0.020037553788872904,0.022761212282392092,-0.0008333463811017274,-0.005737897026734182,-0.01660267952513193,-0.0026079789166322835,41.55103515625,-4.8181494140625,26.646602957589284
-0.03191662099063077,0.017420477919858356,-0.0013466891373320096,0.001033066505816179,-0.016730094302194215,1.759474700155644,40.08052734375,-4.8834326171875,24.2974072265625
-0.05922505592234279,0.00627935037336982,-0.0021928942888935297,-0.104954849560703,-0.016756035035248813,13.110284203619495,40.07125,-4.8938818359375,24.5074169921875
-0.023575082247382986,0.013499191259498838,-0.0009646092749617418,-0.22977993888441858,-0.01667516098513742,21.143959089938047,36.198740234375,-0.2829006363011006,24.4841748046875
-0.012018662678914714,0.01753608203375341,0.000367634103417128,-0.1539351417115249,-0.02530643357923847,21.542836008789326,36.0394287109375,-4.417236328125,22.841773399939903
0.0024436194952238486,0.02512802514725176,0.0011836787011322862,-0.15493402017931715,-0.01618686483352147,19.77439901425215,32.36588245738636,-5.3277197265625,20.78629150390625
0.0315661379698215,0.04080974506871746,0.0012481902823082305,-0.019074476112510303,-0.01616855372783587,8.423569673757134,26.373546424278846,-5.376393037683823,17.27349277712264
-0.002231315652943508,0.037455803916228984,0.0009465180076161164,0.013198565048749647,-0.016247901852473462,0.3893103579821161,24.27837890625,-5.3123876953125,14.86047832782452
-0.010430513804539061,0.03727867155275823,-0.000626372253262031,-0.00871127377215816,-0.016247901852473462,-0.014783060753933446,24.24390625,-5.3123876953125,11.8969677734375
-0.010095156712546112,0.037201332213250435,-0.00037462865513635023,-0.007116796729373187,-0.016247901852473462,-0.006218669907612659,24.24390625,-5.3123876953125,11.9029736328125
-0.010166711314115671,0.0373406847798644,-0.00048303061878443397,-0.00724448377941217,-0.016231116672261663,-0.006870541983713082,24.245029296875,-5.3123876953125,11.0765087890625
-0.01022761562700273,0.03731422326872012,-0.0007074669082251612,-0.007732016968291223,-0.01570584657052123,-0.0060576362205186545,23.91192626953125,-5.3123876953125,7.464279700969827
-0.009588139193762741,0.03736827503406585,5.591184704431324e-06,-0.0006244198691872354,-0.015941190832239684,-0.0030631638433537313,24.19703125,-5.3123876953125,4.43701171875
0.00285519211401714,0.03286157414471873,0.02326279488509786,-0.02466763764637039,-0.005386208654740989,0.009229118906695316,24.1901953125,-5.3123876953125,3.8715771484375
0.015371600414112655,0.01779541611987666,0.0458355243827931,0.02363289383398124,-0.022759678745158905,0.08862149653380155,24.272815632370282,-5.3123876953125,3.9386181640625
0.003085741142002602,0.021199121066927038,0.023478951384014447,0.1399718721070996,-0.11331720373591764,0.18420224317028663,24.164267578125,-5.3123876953125,3.9386181640625
-0.010316188513431385,0.03596513565477456,0.0018892422254097976,0.16522007518856488,-0.1422267095734303,0.23523255819498268,18.64542511970766,-5.3123876953125,3.9386181640625
-0.023418363597521853,0.040240986358226226,-0.022690987884151602,0.2130803710462443,-0.17175154560188122,0.21099070711386447,17.864853515625,-5.3123876953125,3.9386181640625
-0.037695862344083064,0.05257256385998102,-0.04619979857783733,0.11796702416361676,-0.10353616968691506,0.13691972195842655,17.864853515625,-5.3123876953125,3.9369580078125
-0.025401615039521427,0.05748947795458632,-0.02485411542100269,0.018656362087738396,-0.018773159272747236,0.039564105924360715,17.864853515625,-5.3123876953125,3.9671826171875
-0.01438526502782266,0.0420324752844953,-0.003001771125911873,-0.001392618928935915,0.007091314771297673,0.007529559154479012,17.864853515625,-5.3123876953125,3.5296032475490198
-0.013114323439575696,0.03971344919411567,-0.0005936628841252757,-0.01766709159707766,-0.00952558977019557,-0.0016793983627993324,17.864853515625,-5.3123876953125,1.8066377861555232
-0.01354695371129682,0.04008558610797443,-0.001024135172865941,-0.003079778262874892,-0.007223578600421115,-0.0003597144903678179,17.864853515625,-5.3123876953125,-1.6415904651988635
-0.013468255065324527,0.03984133637395903,-0.0007862136316709003,-0.004975432599871784,-0.0072960600604266065,-0.00038735618152409106,17.864853515625,-5.3123876953125,-7.8384983457368
-0.013472430188909527,0.039651000199267865,-0.0007445546900664414,-0.004975432599871784,-0.0072960600604266065,-0.000675147221888107,17.864853515625,-5.3123876953125,-4.423191465180496
-0.013469561449018787,0.03983860775711408,-0.0007659008914395333,-0.004551225318155422,-0.0072960600604266065,-0.00017632916586131828,17.864853515625,-5.3123876953125,0.6792624337332589
-0.013109491095823244,0.03982110049745166,-0.0007281456203185854,-0.0047694326609088065,-0.0072960600604266065,-0.010764377152435244,17.839072265625,-5.3123876953125,-1.1081366784793814
-0.013733654794966427,0.04036761375774401,-0.0004758028703591196,-0.006429585886432668,-0.0072960600604266065,-0.004209069429049069,17.83521484375,-5.3123876953125,1.6505607836174243
-0.029036198614459618,0.05464290292062131,0.001325149286375556,3.2873332738050595e-05,-0.007073274941251829,-0.04628494369334996,15.534926905776516,-5.3535498046875,2.952088402920082
-0.043266196003431574,0.058910379345072726,-0.0037348059956571226,-0.06847383473791135,-0.008728491028084352,-0.0727582383626383,17.91255859375,-5.3750830078125,3.5370625535102738
-0.018527308197036838,0.042362668184060044,-0.0016785010108629624,-0.01461900898512919,0.01141128583456454,-0.08738080174471967,17.90494140625,-5.606133355034722,3.22650146484375
-0.012765377361369623,0.03723817255165252,-0.00273316446424743,-0.0019893546917686914,-0.014543945903190227,-0.10822211281436306,17.96548828125,-9.973347056995738,3.2810381043632075
0.003961439252906872,0.020920609149449095,-0.003848199980162825,-0.004610310304142814,-0.010283059175389813,-0.08776316345478909,22.759903704533812,-5.4776708984375,4.630857323398109
0.017100090538244725,0.0202649128696554,0.0013696714319139849,0.021977532899344447,-0.010162511062959623,-0.033779109272420726,17.9718359375,-5.4776708984375,3.6344672309027777
-0.007546546773070657,0.036293103974457015,-0.0009523212947295282,0.004704074003025685,-0.02214289738704539,-0.014707157209688227,17.914267578125,-5.4776708984375,2.6812811212225274
-0.012284423662371466,0.038527522609129075,0.0004853614917448214,0.0036521500289925747,-0.011941740165410258,-0.008721691147988911,17.914267578125,-5.4776708984375,3.365432997881356
-0.01151047323436954,0.03813299784229577,-0.00015055391094688728,0.004090853602710034,-0.011921903134250858,-0.009373510755426969,17.914267578125,-5.4776708984375,1.9507329150883839
-0.011788650776696021,0.038314304025391356,-0.0006385527250847757,0.004087038789025532,-0.012069917905209442,-0.009138538773766247,17.914267578125,-5.4776708984375,-1.1207360161675348
-0.01180410534989467,0.03858235587006802,-0.0011160993704083808,0.00412594988860743,-0.012076784569841544,-0.006713958209683994,17.914267578125,-5.4776708984375,1.9405846974206349
-0.011542757682534408,0.03832442919487807,-0.0009544072542495639,0.002848565395296859,-0.009418476954710476,0.0015341965300184487,17.914267578125,-5.4776708984375,3.3190745634191177
-0.012383484100754115,0.03766214545121612,-0.001115545111443277,0.011512602798008746,-0.020602726897146643,-0.024194466768168974,17.914267578125,-5.4776708984375,4.682095614346591
-0.02213228919339575,0.029956639301736452,-0.0017386821271483373,-0.013778743712823692,0.011937560532761947,-1.963403500473037,17.914267578125,-5.4776708984375,4.1166455078125
-0.03433037692416626,0.014960258796960306,-0.0013434188031117966,-0.10865492881959217,0.09214468825342563,-9.405512176885281,17.914267578125,-5.5001806640625,4.083012507512019
-0.029772366100039627,0.007565732174255945,-0.001110172417610353,-0.19641598749771605,0.08286019470809042,-21.435501190221867,17.914267578125,-5.5063818359375,4.1465771484375
-0.028977517624439182,0.019249647511215506,-0.0011729728080079119,-0.11443162384467653,0.121913628115452,-30.941106906338696,17.912021484375,-5.4879248046875,4.1465771484375
-0.020135829340494973,0.035489216793318436,-0.0011595621371811508,-0.07582249502378745,0.07997695852534557,-26.672715460676905,17.764136220894606,-5.4568212890625,4.1465771484375
-0.010255119678136698,0.04695404675435648,-0.001177880184331652,-0.006427944027963649,0.0796859226493417,-15.50355899227881,13.58160400390625,-4.335723052153716,4.1465771484375
-0.016532753074739785,0.03670281685842459,-0.0012116824854272678,0.06195600371524316,0.050457612677223825,-5.101105304116947,17.646449497767858,-5.4445654296875,4.1465771484375
-0.018594482398812933,0.01831130100405891,-0.000979811791062418,0.01525102563990771,-0.01712653539186329,-0.4646211890011295,17.97994140625,-5.4445654296875,4.1465771484375
-0.01821655934324162,0.01091588438928746,-9.830892243829604e-05,-0.011505282440979876,-0.0244553441227321,0.003572200303852088,17.978330078125,-5.4994482421875,4.1465771484375
-0.018292132938627227,0.010706259346293474,-0.0005468339226310891,-0.0021690792184209614,0.020042317359026604,-0.007189652190720301,17.978330078125,-8.704449763063524,4.1465771484375
-0.018287903240766453,0.011117837513906673,-0.0006174657429729731,-0.004373647900470469,-0.008580921434112897,-0.0057660175223195505,18.03406700721154,-5.4541357421875,4.1465771484375
-0.018184864483945833,0.010953748335157677,-0.00043372069543724903,-0.0030124072136543003,-0.009962493903495812,-0.006642887661366582,21.2324596287049,-5.4541357421875,4.1465771484375
-0.01820366588335821,0.011035187841425773,-0.0005667221812885193,-0.03427508115355123,-0.00038602446474694823,-0.006499450666829398,18.01607421875,-5.4541357421875,4.1465771484375
-0.018217130649739014,0.010951990246491223,-0.0007450142629150094,0.016861476485488445,-0.012442968535416677,-0.007724434869748461,17.9964453125,-5.4541357421875,4.1465771484375
-0.018321739253136547,0.011387346751647516,-0.0005856095054982732,-0.003227245014941206,-0.013225812320556972,-0.004865278732727835,17.9964453125,-5.4541357421875,4.1465771484375
-0.007409354533524549,0.01074117136949215,0.002335239722891976,0.031271594570321165,-0.017504561592363292,-0.02069747456087431,17.9964453125,-5.4541357421875,3.9946198640046298
0.01648854274117247,0.010874838142905057,0.0014342112491226538,0.1371207612795948,-0.008382378143112988,-0.006247168809843922,17.9964453125,-4.942335697642544,4.228248452240566
0.0002641950743125701,0.01034291239742162,-0.003336514286823897,0.1638621173741874,-0.04777819382070604,-0.007145691004451308,17.9964453125,-5.3993017578125,6.013976332720588
-0.01846231509053093,0.01102625802866894,-0.001272147013045642,0.15964751121555218,-0.10737661179770834,-0.0028042826940056194,17.9964453125,-5.3993017578125,4.2782613820043105
-0.0332961186559648,0.010868467258725704,-0.0040142094180118885,0.18720257607790847,-0.03940222395745083,0.00815096124667532,17.9964453125,-5.3993017578125,3.331179411514946
-0.05469704031495096,0.011139071936681793,-0.0033768527278459602,0.12120607080397647,-0.02724235448340697,-0.0007091738639484914,17.9964453125,-5.3993017578125,5.130085689920775
-0.04000701681569867,0.011476016580526627,0.0013322279819854036,-0.0014928227356988898,-0.021996930982390753,-0.0019283509173803903,17.9964453125,-5.3993017578125,10.771961989912015
-0.020987250077851786,0.011090605316531204,-0.0005444678776624166,0.032807045550049145,-0.018096056653709246,-0.002426357746687625,17.9964453125,-5.3993017578125,5.28668642715669
-0.021472832515344757,0.011142572602636385,-0.0010111559684756915,0.004193951667400542,-0.012533736221888038,-0.0019438676576574209,17.9964453125,-5.3993017578125,4.194928850446429
-0.021340290770967933,0.011020633205215383,-0.0008079492804977333,0.002109341815811282,-0.006937577096153918,3.516944670777538e-05,17.9964453125,-6.624761962890625,3.690555348115809
-0.021087437530862424,0.011079228398177293,-0.0007851073957055178,-0.011810361997709443,-0.015786903704465106,-0.008604015557657912,17.9964453125,-5.4038427734375,4.225730766684322
-0.02121949286803846,0.01111161261410304,-0.0002874567941584565,-0.0038725334741607606,0.00041702294220803893,-0.025152864407665496,16.84272292564655,-5.4038427734375,4.0150341796875
-0.022771322367015543,0.013349479659413386,0.0061062166203802995,-1.4989770195623648,-0.01756592822871389,-0.006526758267024523,17.96607421875,-5.4038427734375,4.0152783203125
-0.006265313272499751,0.015362443268270728,0.006148124637592745,-7.188525193029573,-0.11065530764956884,0.02203978198284501,17.96607421875,-5.4038427734375,4.0152783203125
0.03634732749412514,0.01265457319864493,-0.002068965517241264,-10.109100772118293,-0.0770740468800209,0.04291339290021329,17.96607421875,-5.4038427734375,4.0152783203125
0.08195534775841543,0.012592632831812445,-0.005565452595146968,-10.208921510424377,-0.08270653401287875,0.08349194730231335,17.9632421875,-5.4038427734375,4.0152783203125
0.12908981841486855,0.011820653660407252,-0.014490334788048813,-8.470287331766713,-0.04069492653873515,0.021508911404766948,18.08384765625,-5.4038427734375,4.0152783203125
0.15805317789239173,0.00907453419308329,-0.015790313425092177,-2.68951780755028,0.04417349684177651,-0.0011237169509974432,23.298235550667474,-5.4038427734375,4.0152783203125
0.16103820844723277,0.01207461930745738,-0.009448060859080402,-0.06800294354015904,-0.015561465571241783,-0.0037174999467365424,18.06841796875,-5.4038427734375,4.0152783203125
0.16094471719678624,0.012189744560075634,-0.007702054773344079,-0.0120089845709371,-0.01773133693628658,-0.005115496850310268,18.06841796875,-5.4038427734375,3.9970166015625
0.16083635608996855,0.012410858259608477,-0.008266166615237195,-0.002669742486489274,-0.0024716489275235036,-0.0034018219550156926,17.07095703125,-5.4038427734375,4.133405412946429
0.16083750623086235,0.012408160197307767,-0.008229704497595837,-0.0050608844264045695,-0.006755603169548699,-0.0034407330545975856,9.311883441472459,-5.4038427734375,3.0363020463423296
0.16087753987873002,0.012441098784477252,-0.008241413617358792,-0.006212141506416198,-0.005949406305995969,-0.0030188800578979428,4.896036082300647,-5.7794287109375,0.34896904125548245
0.16070168255434017,0.012794775987388507,-0.00882513432632172,0.007896334198806946,-0.009213145932730371,0.002955783668371775,1.5705769856770833,-1.5280720338983051,2.5808192661830356
0.1594088100833155,0.0143270851771599,-0.01220180059205894,0.9802620014038514,0.05207541123691516,0.40394703512680435,-0.0675376974126344,1.5043465035860655,4.136749977289244
0.14675180761131626,0.015244386533992143,-0.013331518978024742,4.620323648792993,-0.07057695242164369,1.965035172582171,-1.2858734130859375,2.2992333984375,3.581561748798077
0.11189879085665451,0.013356450086977698,-0.010124686422315001,8.611171147801143,-0.3013094201248441,3.7065960417493202,-2.687104724702381,2.8025010052849266,3.4283162434895833
0.0698908072145756,0.01136501016680171,-0.0031624141218118186,9.805875423444318,-0.35879445138284055,4.227366939298685,-0.9059439132462687,1.993661221590909,3.65240478515625
0.03842328196050899,0.008189874197916674,0.012057704397717256,9.650897854548782,-0.4067873165074615,4.028390835291605,-0.3156018379407051,2.3379052734375,3.6122509765625
0.022426958734786336,0.004561357463301446,0.02789619915084565,7.148647114474929,-0.36372631000701916,2.353124561296427,-1.2651223575367647,2.5543715533088234,3.6139599609375
0.026229306314279558,0.0023019379253516824,0.024301779229102503,2.5020583208716087,-0.13068620868556774,-0.7780516220587789,-0.7188439002403846,4.067544119698661,3.5882275390625
0.03109178136539807,4.979799094304428e-05,0.005804828028199185,-0.12237479781487468,0.010800772990247143,-3.3534582811975455,-0.8818145216557017,10.209507172683189,3.5882275390625
0.023919592272713352,-0.002527079073458,-0.018923673207800397,-0.4677195161172944,0.05861747337260045,-4.832109057893614,-0.12713531949626866,6.4535719651442305,3.5882275390625
0.00980629535813466,-0.0036029370585189237,-0.040712070070497625,-0.524418190528782,0.12685708064633502,-5.743124713888974,1.9436683654785156,3.4958319909793816,3.5882275390625
-0.0077577904599138835,-0.0019968460294244846,-0.05174629352702401,-0.5584208674123357,0.2004063748977481,-6.115217825861387,-2.163969251844618,1.9039259690504808,3.5672314453125
-0.01899734244819478,0.0005145664845729012,-0.051138547929319,-0.5057105217647836,0.2527361369670705,-6.129465052417036,-4.800733827000899,1.9678365773168103,2.7147216796875
-0.0385614648884548,0.006487227427963311,-0.0337723685415203,-0.43925672170171215,0.2749235650058123,-5.92796769615772,-19.049926538655747,1.5988693237304688,3.6487369177476414
-0.050277276528214315,0.012089907528916234,-0.0059738639484846374,-0.3602944584038368,0.26140949736014885,-5.230884502700889,-6.2529932037601625,2.130701199383803,3.5606186810661766
-0.05446929898983728,0.015213707036394438,0.02333408612323379,-0.25150893875626135,0.2318031143241317,-4.028172933133946,-3.4000206386920104,0.9244775390625,3.7311171234631146
-0.047307837763603595,0.0136520767845698,0.036728203244553594,-0.14781060506466395,0.16198248237556076,-2.524220023194067,-2.2820561247051887,0.9329248046875,4.768588096217106
-0.027679760734885664,0.008455812250129643,0.030520548112430226,-0.06041854228339481,0.07869291239287571,-1.1909739219336528,-3.7275454872532894,0.9171533203125,3.57196044921875
-0.01208953886532176,0.0034355784783470693,0.01584771263771482,-0.014171927667614007,0.014219455853529626,-0.35457525864436784,-1.3929248754528984,0.4982943600171233,3.6746533203125
-0.0012732663960691947,8.697453953189968e-05,0.0006904913256718986,0.011888856251038386,-0.0027018919869637244,-0.024423189424949573,-1.7327691736355635,1.0024690448113207,3.6615673828125
2.9573866237373772e-05,8.811363604219401e-05,0.000172101710768621,3.991197543030532e-05,-0.00015352115334265248,-0.007630907683181057,0.12730265006744604,0.9252131535456731,3.6615673828125
0.0001732900036129589,-4.750624616660882e-06,-7.528797384435075e-05,-0.00670769869508931,0.0036150847383741172,-0.011147242778400502,-1.1929485987103174,0.9424462890625,3.6821240234375
0.00010336008789328728,0.00014040588432414602,-1.690343943592413e-05,0.00405255575242229,-0.004472684457316848,-0.005445767002423782,-1.7443359375,0.9424462890625,3.6599560546875
0.00020297888651113426,6.925294557345112e-05,-9.096695717372165e-05,0.00029164865910529675,-0.008706792033004314,0.0012196132749967181,-1.5393351236979167,1.131255603227459,3.9662841796875
0.00014448000947864915,8.935819574570321e-05,-0.00010851349035488324,0.0014467327674975421,-0.007969736814391951,-0.002595793711631166,-2.0457421875,0.093939208984375,3.3789927808544302
9.144825124314988e-05,-5.0071573171026716e-05,-8.182877840774762e-05,0.00161613875296847,-0.011852467167170165,-0.0024941251869258466,-1.5879464285714286,-1.0466782078598484,1.8565279742864174
0.00015677739799183698,2.191755161574468e-05,-9.767920607474316e-05,0.00045317742563805884,-0.009249015778069332,-0.0037087618640705223,-3.105979429472477,-1.9105869838169642,-1.6133156360035212
0.00014103394449469913,4.169827182003931e-05,-9.31913205358002e-05,0.002017845698416065,-0.01586560413037364,-0.002767669768184957,-1.0170345666273586,-3.846171160442073,1.826348876953125
0.00012922663749406445,1.6365550706503355e-05,-9.11648915065959e-05,0.001113412063262507,-0.010112797193549098,-0.00408953113396605,0.38140800561797755,-1.832864761352539,3.3550239458476026
0.00012088841471389862,8.011629785170711e-05,-9.724370907867362e-05,0.0034503400270597027,-0.006964744044799337,-0.007742424222319788,1.9032442485866834,-0.5758138020833333,3.707053855613426
8.784085360268972e-05,3.709135865412181e-05,-0.0003136170635876594,0.009281928691879231,-0.006354581995156467,-0.003746318490479061,0.46137091818820225,0.0636890552662037,4.017981487771739
0.00014022937711718233,4.309213538010754e-05,-0.00012892178106005853,0.002480512325462225,-0.00434375082150684,-0.005455421994689732,-0.20989990234375,-0.060546875,3.4344106820913463
8.532459443693403e-05,4.019898068178354e-05,-7.404517030043527e-05,0.005745622152631194,-0.00654247883071846,-0.0032697721793267212,-1.5926983173076923,0.40447662688873626,3.4476025390625
3.626221752472448e-05,3.650013733329267e-05,-3.759592456969307e-05,-0.0015077556575099375,-0.00632633442182677,-0.000987520622433973,-0.04571328387164429,-0.1651702880859375,3.5482066761363638
-3.073015732093085e-05,3.687787586567492e-05,1.646506052739319e-05,-0.00864586648588077,-0.006387371440778765,-0.002912678369788387,1.388167786083633,1.3769515081746688,2.8044062747231013
-0.00010143480592405117,3.850215155491809e-05,6.284050692811513e-05,-0.0027693974230421515,-0.006375926999725267,-0.0027533036286507416,2.9250860305059523,0.04288358466569767,3.478335974351415
-1.0573646249785079e-05,-2.589855300084931e-06,0.0001601574834100947,-2.5965344755781983e-05,-0.0064682454908901585,-0.002727362895596146,4.880044592432229,-0.7494502176765268,3.4812873391544117
-1.3769951475565976e-06,6.213461446823236e-05,7.161372506291315e-05,0.0009190708968911133,-0.00648283568599734,-0.0027380443739127443,7.818626274496822,-1.9037924157567772,3.4935302734375
6.863890222147357e-06,0.00010465530888785521,3.767484131676629e-05,0.0046294289986877,-0.0057151273575547735,-0.002731177709280646,4.026956948889307,-0.24334934779575892,5.036097671046401
-3.0249946592604525e-06,6.011920303738278e-05,-6.564870482756318e-06,0.0002092163505008942,-0.008056933598128436,-0.002645426566597225,1.8250109084109043,1.217237419256285,3.865192119891827
-3.0982390820028472e-06,6.778160954618605e-05,-4.5301675466079715e-05,0.00029435102389599075,-0.011679533093342779,-0.0028584745739199556,-0.27282242748618785,2.868917458655498,3.7374462890625
-1.0574663533432459e-05,4.89047376464589e-05,-4.155400250242907e-05,0.0002798547318948928,-0.007489332576260077,-0.005421312038909457,1.156749212919776,1.4343617113330696,3.7914501953125
-3.7147473604709136e-05,-3.002156240830592e-05,-4.15051728872675e-05,0.000176453832975189,-0.005737335826254029,-0.0031980301850173293,1.624194764254386,0.20671735491071427,3.7914501953125
-1.2303614684678554e-05,4.7096163823358895e-05,-6.35074664308328e-05,-0.0009838949465707895,-0.005905941953794911,-0.0024247099733912788,2.735743833391854,2.382394286014574,3.7914501953125
1.0379450309026641e-05,5.186925870540484e-05,-5.271156956685302e-05,0.0002584917752616916,-0.005870082705160613,-0.0018220699827047548,1.2072513204225352,4.985653769003378,3.7914501953125
4.6301234240940625e-05,4.751404941382678e-05,-5.308999908435551e-05,0.0002439954832605896,-0.005898312326425912,-0.0025228888821069617,1.5834269973466981,2.7688988857581966,3.7914501953125
4.513205680297779e-05,6.509598071229963e-05,-5.102929542142864e-05,0.0002439954832605896,-0.005898312326425912,-0.0025022888882106644,1.763248083726415,1.4139883858816964,3.702111586084906
9.808679161929557e-05,0.00012034182275851027,-5.224768822281787e-05,0.0002439954832605896,-0.005898312326425912,-0.002442777794732469,3.4482885207572993,-0.4422498105177239,3.9742571721311477
4.0713833290768406e-05,7.896381748121782e-05,-5.393398547190558e-05,0.0002439954832605896,-0.005898312326425912,-0.0024557481612597675,1.2636474609375,0.5815188229739011,3.8236767578125
3.401287881099919e-05,6.254620846898156e-05,-0.00015074869607435218,0.0003386546865201976,-0.005898312326425912,-0.0033341028019540056,-0.20365415547228508,0.9907865084134615,3.7779447115384617
2.8461779926668666e-05,-3.924171676788525e-06,-5.1898632770734536e-05,-0.00012013195093732951,-0.005898312326425912,-0.001918899572084108,-1.8699386760752688,1.7439478824013157,2.468967013888889
6.301636228086718e-06,-9.324311951953967e-05,-1.4017029328213176e-05,0.002583654351955831,-0.005898312326425912,0.0007140797283976305,-8.215939785571809,3.2234619140625,3.2685388342126624
3.183902190524731e-05,-6.305360112510887e-06,5.305694774643447e-05,-0.002770181047641164,-0.005898312326425912,0.005437373961127569,-2.7780045817669174,1.9675739986795775,1.7410785721009037
3.0289010284738062e-05,-5.197609913437147e-05,0.00010967388563273276,-0.007073968368144284,-0.005898312326425912,0.0009225113389356317,-0.7874809713924632,0.9495361328125,0.9720936650815217
7.436468679791586e-05,2.7547424684787915e-05,1.350174763353509e-05,-0.013082164625638158,-0.005898312326425912,-0.0028539484905141677,-3.0771071742957745,0.7162945087139423,-1.652267596043578
4.5905651301324045e-05,7.239862405119632e-05,-1.6534122284704804e-05,-0.002472290474707213,-0.005898312326425912,-0.0021700764962224997,-1.5048040574596775,0.5442473847987288,0.7950864641853933
3.863887447737091e-05,2.275481865465658e-05,-3.737057829912255e-05,-0.006167224695971556,-0.005898312326425912,-0.005870468425210957,-0.26701153449292453,0.8485107421875,1.799817537006579
3.5159764397107236e-05,9.788136504787605e-05,-1.755340476057014e-05,-0.003973192747018958,-0.005898312326425912,-0.004748337294105059,0.5960190716911765,1.332564952761628,1.9447564019097223
2.7457616007071295e-05,0.00010693685720385454,-1.2016926196674236e-05,-0.0032458041065063074,-0.006172080631053611,-0.005346613971373596,1.2559563131893383,0.4719598943536932,2.5558487741570723
3.278884722015307e-05,0.00010821863460184488,1.9003393979597167e-05,-0.00859367202830125,-0.005397663331247836,-0.005346613971373596,2.2483902815934065,-0.7397189670138888,4.099823559720092
3.0117580037783476e-05,0.00011323587755969322,-2.568350561752444e-05,-0.00360410409901251,-0.008367440593460607,-0.005346613971373596,4.832776635094026,1.1735372029378743,2.7230648643092104
-1.4132373171120359e-05,0.00011323587755969322,-4.992174182203421e-05,0.000854141493605972,-0.005842213757189123,-0.005346613971373596,2.7592700559701493,2.8734624953497026,1.99207763671875
2.8668456384314255e-05,0.00011323587755969322,-6.295009351732396e-05,0.0041206737078345245,-0.006014953493822239,-0.005346613971373596,1.8360595703125,1.9184543034217878,0.026073222257653062
2.6492207874953714e-05,0.00011847989651873192,-0.00015232043653186107,0.0015120395519882459,-0.005730730495737907,-0.005346613971373596,0.8731239720394737,0.47905887831125826,-2.6182165990901898
5.954597177473782e-05,0.00011390728476816522,-5.917913776100689e-05,0.0015181432538834466,-0.003067984430473685,-0.005329828791161797,-0.6450991981907894,-1.3091266591061828,-5.68654296875
7.048631244849564e-05,0.00011390728476816522,-4.184087649150827e-05,0.0015150914029358439,-0.005516983550523327,-0.005361873226111594,1.2542417104007633,-3.2647788038531553,-13.794764859068627
8.25362637233906e-05,0.00011390728476816522,-5.5507065034854024e-05,0.0015728252420386707,-0.0058349864192632165,-0.006463065916894295,3.1275644228439923,-1.4920607941060127,-7.713578454980023
0.00012591192655902634,0.00011268654438912723,-5.455488753920294e-05,0.0015013580736716458,-0.0058349864192632165,-0.005293420796251342,1.4881036931818181,-1.2412222055288462,-5.090157820351759
5.1832371115690067e-05,0.00011235694448678484,-5.424970244444293e-05,0.0015013580736716458,-0.0058349864192632165,-0.005210043641468503,0.06951121794871795,-0.2754303688226744,-3.018223024764151
7.085859338394451e-05,0.00011385845515300366,-5.471358378847809e-05,0.0015013580736716458,-0.0058349864192632165,-0.005238273262733803,1.52322998046875,1.0478330201740507,-0.949973882630814
8.655231487448118e-05,0.00016670456868645112,-5.576342051445241e-05,0.0016122449834451704,-0.005822016052735917,-0.005238273262733803,0.8556300571986607,-0.5087925011003521,0.9911931818181818
7.044979923180547e-05,0.0001174136819863105,-5.576342051445241e-05,-0.0009553796271378049,-0.00578081606494332,-0.005238273262733803,-0.06874302455357142,-1.2173679896763392,2.8352368672688804
9.331554882151994e-05,0.0001029818233406881,-5.6471449934295525e-05,0.0011107940324015103,-0.006176119774976798,-0.005238273262733803,-2.2411672108208953,-0.9220987955729166,-1.1501558743990385
2.584559714237624e-05,5.641933371050954e-05,-5.5824457533404405e-05,0.0011795136206249224,-0.008911997609658301,-0.005238273262733803,-0.7275482753537735,-1.1889474051339286,-0.3134909237132353
-2.5194525577802016e-05,1.7722368869884233e-05,-5.7423627429948e-05,0.00282757758012329,-0.00628233788215623,-0.005238273262733803,0.05566827182112069,-2.6633023920747423,-4.04735448338964
-4.56754627315263e-05,-2.907193212683418e-05,-4.546037171535826e-05,0.007285745035424549,-0.006011993774223997,-0.005238273262733803,1.0868241159539473,-1.8326644897460938,-1.8855682022270115
-9.583197472422691e-05,1.7329757251019532e-05,-4.314096499518324e-05,0.002612943008863415,-0.006153904843287385,-0.005238273262733803,3.0597000122070312,-1.163665771484375,-1.3351490458504098
-3.500145152084265e-05,3.363837310185776e-05,-4.243293557533918e-05,0.0030852759817876843,-0.006143223364970784,-0.005238273262733803,1.4732852224576272,-0.5763118489583333,-0.1763577748493976
1.7501347900835535e-05,4.2662907311348705e-05,-9.358167682712977e-05,0.001428303766234196,-0.006143223364970784,-0.005238273262733803,1.923397549715909,0.19044763901654413,0.9403801517210145
4.4403648761692305e-05,7.509941736184365e-05,-0.0002873997330586881,0.000803988715647259,-0.006143223364970784,-0.005238273262733803,0.3618142832880435,1.7358917885638299,2.802224978885135
0.00010131090185207284,0.00010578899684745605,-0.00011315246030039443,0.0016304888915126819,-0.006143223364970784,-0.005238273262733803,-2.0968246922348484,-0.5721232096354166,-0.02725380345394737
3.443481494782411e-05,7.73172565524566e-05,-7.909329508334312e-05,-0.0026282691578568065,-0.006143223364970784,-0.005238273262733803,,,
6.093947940209679e-05,6.711489749302179e-05,-5.2327301725776304e-05,-0.00707366967167375,-0.006143223364970784,-0.005238273262733803,,,
1.155947235844725e-05,6.446151696266954e-05,-3.616443372813684e-06,-0.002885972324973691,-0.006143223364970784,-0.005238273262733803,,,
-1.6863937655603913e-06,3.8863934612706357e-05,4.75993552475926e-05,0.0002401131767186152,-0.006143223364970784,-0.005238273262733803,,,
1.0603634002573787e-05,6.769005401775825e-05,-2.0083439865449478e-05,0.0005417035431989496,-0.006143223364970784,-0.005238273262733803,,,
-3.941322035745964e-05,8.98517994641846e-05,-2.269356364626351e-05,0.0026217881566856747,-0.006143223364970784,-0.005238273262733803,,,
3.811656597312869e-06,7.267983031708507e-05,-2.8070821563377215e-05,0.0007824108066640251,-0.00607989745780809,-0.005238273262733803,,,
-1.5940834782958547e-06,7.002689988620225e-05,-1.5886271387146778e-05,0.000562498017792872,-0.006504049251325412,-0.005238273262733803,,,
1.3944005426388577e-05,1.533188106434645e-05,5.822931608030679e-05,0.0008146916104617216,-0.006154667806024288,-0.005238273262733803,,,
5.335721708436276e-05,-4.4354075746940014e-05,-7.157454203431968e-06,0.0010065872108296155,-0.006154667806024288,-0.005238273262733803,,,
1.7309929027511025e-05,-5.8163963312436866e-06,-4.466601851061612e-06,0.0008001953184606217,-0.006154667806024288,-0.005238273262733803,,,
-2.993191994321152e-05,-8.729945300058056e-05,-2.2947850074370876e-05,0.0011724194057028555,-0.0062012085329751845,-0.005238273262733803,,,
-6.8298135319063e-05,-4.74322264688805e-05,-5.905922264424389e-05,-0.0012239652730824026,-0.00471363465275016,-0.005238273262733803,,,
-0.00010164225067617345,-6.111401949897773e-05,-4.2139957884369105e-05,0.0012047181615649728,-0.006154667806024286,-0.005238273262733803,,,
-6.0662473608421716e-05,-7.757628189901478e-05,-4.2689291054937087e-05,0.0047641018120081905,-0.006062349314859395,-0.005238273262733803,,,
-7.111376126543167e-05,-6.733944602517626e-06,-4.304330576485864e-05,0.0004885924478244659,-0.006382255271784538,-0.005238273262733803,,,
-4.292123172704169e-05,3.8337276249402526e-05,-4.12837640930328e-05,-0.004083644362756276,-0.005785497991833577,-0.005238273262733803,,,
1.7066481255664306e-05,7.883353561626802e-05,-4.299447614969696e-05,-0.008338406820007457,-0.007787501966096207,-0.005238273262733803,,,
6.102929274706367e-06,9.231256966303446e-05,-4.2713705862517805e-05,-0.0034982609570152878,-0.012279066118631549,-0.005238273262733803,,,
3.947917218810809e-05,0.00010731732128866252,-4.315317239897216e-05,0.000764328852611278,-0.008970996421752045,-0.005238273262733803,,,
6.59662401035647e-05,5.836664937284209e-05,-4.315317239897216e-05,0.006296820645097817,-0.006618243964964692,-0.005238273262733803,,,
3.6791758646063594e-05,7.04037792571928e-05,-4.733823894372179e-05,0.0047485274819177555,-0.0061595616670081016,-0.005238273262733803,,,
2.8220150003736243e-05,5.1100760053444244e-08,-4.33362834558282e-05,0.004909512619403638,-0.005730803857539531,-0.005238273262733803,,,
-1.941131077511092e-05,-5.7751975290954744e-05,-4.33362834558282e-05,0.0049346903897213345,-0.0034543137913143613,-0.005238273262733803,,,
1.0809929356483446e-05,-1.4616018461350567e-05,-4.33362834558282e-05,0.0036060888786191353,-0.0029452939221150365,-0.005238273262733803,,,
4.312265388958438e-05,2.376603207598216e-05,-4.27014984587274e-05,0.004843897824030243,-0.0043200123952099245,-0.005238273262733803,,,
7.868472228405796e-05,8.792153691211924e-05,-4.271370586251777e-05,0.004795068208868648,-0.0036845231248135895,-0.005238273262733803,,,
0.00011438783963934408,6.487814169638441e-05,-4.88725671378019e-05,0.004795068208868648,-0.0037939444096373107,-0.005238273262733803,,,
7.39935134295308e-05,5.4759477445854244e-05,-0.00010439321975081344,0.0056762769010709115,-0.0006044414344943025,-0.005238273262733803,,,
8.165396757577405e-05,1.0551774651326051e-05,-5.576232731410338e-05,0.0048034607989745496,-0.003933742174277755,-0.005238273262733803,,,
7.314347690335717e-05,-3.5450918703712024e-05,-1.825588171598212e-05,0.00482177190466015,-0.00445057427329669,-0.005238273262733803,,,
5.21373520732636e-05,-8.124765032628499e-05,4.7739173667064275e-05,0.00482177190466015,-0.004233321185769691,-0.005238273262733803,,,
5.734061708426199e-05,-9.716330454420834e-06,-1.3326728814787134e-05,0.00482177190466015,-0.003100423284629039,-0.005238273262733803,,,
1.961501738716652e-05,3.4846830254723334e-05,-3.308206427189175e-05,0.00482177190466015,-0.004287027778425983,-0.005238273262733803,,,
4.41625438420998e-05,9.222894784586076e-05,-3.6707663197640074e-05,0.00482177190466015,-0.004237671109066041,-0.005238273262733803,,,
6.655273089795474e-05,4.893091063985432e-05,-4.1648375124039584e-05,0.00482177190466015,-0.00516783675778226,-0.005238273262733803,,,
1.819189275795825e-05,1.2359996337778763e-05,-7.606758832555222e-05,0.00482177190466015,-0.008667037449017366,-0.005238273262733803,,,
-1.24689910144784e-05,-4.124461149552605e-05,-4.2152165288158125e-05,0.00482177190466015,-0.0054840364554341004,-0.005238273262733803,,,
-2.3194067201757666e-05,-0.00010754852605336314,-4.083376567879505e-05,0.00482177190466015,-0.0044832816102965784,-0.005238273262733803,,,
-5.188591251454617e-05,-5.748178405033868e-05,-3.880733664958871e-05,0.00482177190466015,-0.005040254458972159,-0.005238273262733803,,,
2.6236229733651796e-06,-1.616224357719999e-05,-2.4767950333210158e-05,0.004798883022553151,-0.0038491470076600855,-0.005238273262733803,,,
4.193331661449819e-05,1.0959712000393286e-05,-2.8614154484606853e-05,0.004660023804437365,-0.005154382662935742,-0.005238273262733803,,,
6.258980071413225e-05,8.058941213190988e-05,-2.838221381258934e-05,0.0052797021393474865,-0.0068652028810613185,-0.005238273262733803,,,
6.439183546639054e-05,4.675338767565372e-05,-4.5949685150622716e-05,0.009776334294666287,-0.004959105197302097,-0.005238273262733803,,,
9.702385701745093e-05,2.287650973829154e-05,-0.00014138728627270168,0.005128904798407243,-0.004979005060686889,-0.005238273262733803,,,
6.419786457629327e-05,-2.283563704791224e-05,-7.728449209196356e-05,0.0056469536472282715,-0.005141928675895712,-0.005238273262733803,,,
4.244204268619153e-05,-8.063896221806973e-05,-1.7725804271620515e-05,0.004308719856239834,-0.003781712839606391,-0.005238273262733803,,,
5.870743939532701e-05,-3.3075898916531385e-05,-1.0826857398014814e-05,0.0023245294699806556,-0.002064113404387545,-0.005238273262733803,,,
2.650272024129078e-05,-3.6044656783261985e-06,1.9144611206797585e-05,0.005426572466200693,-0.002453602020915953,-0.005238273262733803,,,
5.453269225967427e-05,4.084807123020091e-05,1.2134159367744315e-05,0.00430143131809439,-0.0006314520546184585,-0.005238273262733803,,,
5.975320698670217e-05,5.496993926816616e-05,1.2268440809438588e-05,0.00430295724356819,-0.0022936047076187456,-0.005238273262733803,,,
3.39262531956405e-05,5.511642811365095e-05,8.20787281178448e-06,0.0043380535294655865,-0.0021781060213018548,-0.005238273262733803,,,
-1.2210911665050455e-05,7.708684841164735e-05,1.1652086598451149e-05,0.0043380535294655865,-0.0022078615680409526,-0.005238273262733803,,,
-6.277325676282779e-05,5.237420131673502e-05,1.3525803399849492e-05,0.0043380535294655865,-0.0034946208611786214,-0.005238273262733803,,,
-1.60064659861361e-05,1.772057252723772e-05,1.8339828988724036e-05,0.0043380535294655865,-0.0019046819753322647,-0.005238273262733803,,,
-2.7565200221644607e-05,5.150303659169289e-05,8.082064271990592e-05,0.0043380535294655865,-0.0020031511857038706,-0.005238273262733803,,,
-3.235901035515901e-06,4.547483974956732e-05,1.7419344493524456e-05,0.004231204197043585,-0.001872339901073012,-0.005238273262733803,,,
2.117984557634231e-05,5.828071567510959e-05,2.4509224219570155e-05,0.004856465901114445,0.0008377754719348424,-0.005238273262733803,,,
3.466515139845317e-06,8.967713566163408e-05,-5.704781378393524e-06,0.004437238685262579,-0.0015936197166325785,-0.005238273262733803,,,
-3.044503899022152e-05,6.707968382823931e-05,-4.572534418588538e-05,0.0020036249207366023,-0.0015019893879362647,-0.005238273262733803,,,
-6.448971002405031e-06,3.85061424369264e-05,2.9512528979265593e-06,0.003517404940711892,-0.0018081601571997936,-0.005238273262733803,,,
3.816848251798105e-05,1.8213898581341453e-05,6.225775933991427e-07,0.0038507563821832524,-0.0021617522084836074,-0.005238273262733803,,,
8.626283968885611e-05,1.9970202837111633e-05,1.483669076149428e-06,-0.002026263167741643,-0.003651993013472756,-0.005238273262733803,,,
6.0923528244880414e-05,-5.522289870309558e-05,1.1434268217094906e-05,0.0012442895173614683,-0.0063013278529036945,-0.005238273262733803,,,
5.947877976227914e-05,-6.577303949660587e-06,8.374279000302809e-06,0.003959110525930766,-0.0032066729315485035,-0.005238273262733803,,,
5.04627678308522e-05,3.851574616368443e-05,8.423108615464359e-06,0.005203968707020762,-0.0018780664369998728,-0.005238273262733803,,,
2.777477809522263e-05,5.8923843371609974e-05,1.5455215693660287e-05,0.006822940998330825,-0.001038221276031446,-0.005238273262733803,,,
6.35305312672125e-05,8.483084120952249e-05,9.969763642863549e-06,0.004586655729113466,-0.0004214151627642489,-0.005238273262733803,,,
9.220658996346078e-05,0.00012314688089091252,5.6425034970599925e-05,0.00514069032868431,0.001101828168694242,-0.005238273262733803,,,
6.944015181571173e-05,6.723857384582879e-05,4.627306461377791e-05,0.0051208532975249126,0.0027719823436550277,-0.005238273262733803,,,
6.355949113906726e-05,8.600670852326439e-06,0.00014295503241591102,0.005105594042786914,0.005127756170558105,-0.005238273262733803,,,
1.5026006129859197e-05,2.6158407242666933e-05,7.859091681975287e-05,0.005105594042786914,0.011140861098923188,-0.005238273262733803,,,
-1.906574519264044e-05,-2.468234367321148e-05,2.841005526001086e-05,0.005105594042786914,0.003964688488797194,-0.005238273262733803,,,
-5.36420832192463e-05,1.533926272230062e-05,3.8933479822277005e-05,0.005105594042786914,0.0010808973405528146,-0.005238273262733803,,,
-8.723676807418316e-05,4.540358074998177e-05,8.664204840324114e-06,0.005105594042786914,-0.0008268866418833934,-0.005238273262733803,,,
-6.697343420265853e-05,-1.0230204619101545e-05,-2.543209122166399e-07,0.005105594042786914,-0.0023779005300047294,-0.005238273262733803,,,
-6.818811609240964e-05,-6.859035004730299e-06,5.448417672949932e-06,0.005105594042786914,-0.001156043201012176,-0.005238273262733803,,,
-6.799279763176326e-05,-6.1014130069880595e-05,-3.0389110995744476e-05,0.005105594042786914,-0.004048576989721984,-0.005238273262733803,,,
-6.727256080812974e-05,-7.891244660575355e-05,6.497489122843972e-08,0.005105594042786914,-0.007759549023625616,-0.005238273262733803,,,
-7.682982142461684e-05,-0.00011747237743166455,7.864619892062868e-06,0.005105594042786914,-0.004665109728856315,-0.005188745013066067,,,
-4.776824922093002e-05,-6.305291282450336e-05,2.5014613670973614e-05,0.005105594042786914,-0.0025850812446319396,-0.005242851039155202,,,
1.525796974812615e-05,-2.161582428314163e-05,2.2193060091033087e-05,0.005105594042786914,-0.0037616212119974063,-0.005242851039155202,,,
-1.3007794887976465e-05,-1.0810794034718328e-06,2.3706778161042588e-05,0.005105594042786914,-0.001423710907135717,-0.005206228827784007,,,
4.3374068277171936e-05,3.164275323459676e-05,2.2373059456729536e-05,0.005105594042786914,-0.002477129534234858,-0.005389718641141523,,,
-1.0823262225205911e-05,-1.350415253266203e-05,2.612145050295348e-05,0.0051582384716330094,-0.0019838369690514932,-0.005226828821680305,,,
-5.299569090614062e-05,-2.9954151808456466e-05,9.968188247614497e-05,0.0050605792413098176,-0.0020814210357042416,-0.005226828821680305,,,
-5.03244237237725e-05,-1.1377300332651723e-05,5.590567907164614e-05,0.005142216254158109,-0.0005126810390893875,-0.005226828821680305,,,
-5.343850849461728e-05,-8.794879548990806e-07,3.813612956266908e-05,0.004265330874788414,0.0003891756536780293,-0.005223014007995807,,,
-9.073906853916488e-05,-1.1435050742890885e-05,9.797768433593513e-06,0.0052551347392192985,-0.0005574714397615228,-0.005279473250526403,,,
-4.5311441389202146e-05,-2.7866173561536827e-05,-3.44215793905084e-05,0.0052429273354289,0.0021422692475389195,-0.0050840209587114295,,,
-4.268684957426639e-05,-1.082468055337096e-05,-4.935880018988617e-05,0.005239875484481302,-0.00023554604495074308,-0.0038693879602684686,,,
-4.390758995330628e-05,3.5636899493828816e-05,-6.400880835513234e-05,0.005236823633533702,1.878615795575791e-05,-0.005155486451655703,,,
-2.884171891761761e-05,5.923981783840558e-05,-0.0001571626200998109,0.005278023621326299,-0.0001882992034668778,-0.005462037301894745,,,
-2.813562425611094e-05,5.1762846996892386e-05,-5.91957355468459e-05,0.0052673421430097,-0.0001882992034668778,-0.005218436231574406,,,
-2.9381838953249294e-05,9.33800403998848e-05,-2.869175869442324e-05,0.005221564378795705,-0.0010005779442731747,-0.005386150113505337,,,
-6.343154815702885e-06,5.224674919184383e-05,-3.1113055253112326e-05,0.005127719962157011,1.4323545721056516e-05,-0.007197593403312987,,,
-3.3265175328836547e-05,2.5734284314024907e-05,-5.4640022289589046e-06,0.005287406566984803,-0.00037153560420106124,-0.005007066019411705,,,
-3.320169682912647e-05,-1.1353595257849378e-05,-2.606280709241328e-05,0.004861512186386284,-7.766960661639368e-05,-0.005239106763535062,,,
-3.207059367220462e-05,-4.420182229410999e-05,-2.655110324402918e-05,0.005179469779793956,0.0030044813906252524,-0.0034308695882280223,,,
-3.910825884152663e-05,-6.344388169932094e-05,-2.5794244209024463e-05,0.008182659752836994,0.0001360087045570893,-0.0005080152368450128,,,
-3.264015625476812e-05,-3.587069307535012e-05,-2.6992724028212467e-05,0.005033225540900902,0.0017104163568821206,-0.003682196888776632,,,
-2.8111907014460875e-05,3.7105141631023073e-06,-4.015363889619259e-05,0.001992438486405753,0.00039353133548512663,-0.0042020532622846635,,,
-3.6244021214552475e-05,-3.314517034242277e-05,-2.8284554582266085e-05,-0.0024959239600009005,-0.0010168906077899448,-0.004784730063783639,,,
-2.7310675035519762e-05,-7.87305736222994e-05,-2.874843592630112e-05,-0.009134647663808048,-0.001876393819888739,-0.004152144194571628,,,
-5.336300102375329e-05,-7.295619237511383e-05,-1.2805805927915019e-07,-0.0031304129894174208,-0.0022131838908573437,-0.0024395530596753438,,,
-4.155156102175926e-05,-9.69642221340371e-05,6.848353526501937e-06,0.0005450805913786765,-0.00114351765059791,-0.004330033617311937,,,
-3.4885003908716425e-05,-1.638002897576258e-05,4.870754112457497e-06,-0.0003932779461512433,-0.0022905141968603353,-0.004261578751286201,,,
-2.739883961844756e-06,5.279702139346912e-05,4.1477750458636494e-05,0.0012349702396090311,-0.005165234034317528,-0.004373836481826187,,,
4.913480025635418e-05,8.237445101362148e-05,2.0903247439901467e-05,0.0004828028199102653,-0.0015045724257736017,-0.005040198184546719,,,
1.3018225098977843e-05,0.00011643585715330586,7.13876488818648e-05,0.0001233894908986523,-0.00303869473117492,-0.004511148727220265,,,
-3.0108689491601635e-06,7.146869761695379e-05,0.00010543746956455064,0.004637912303260698,-0.0018424054090766177,-0.006121022026295694,,,
-5.641727958006378e-05,4.0107190395590306e-05,0.00011876876743475063,-0.0006600672828618096,-0.0006882432528661721,-0.004540829244418175,,,
-5.887769045133225e-05,2.8653610557660455e-05,0.00013773463194474903,0.00033884824794886553,0.00040874332965871074,-0.003499137852107258,,,
-9.168800650319737e-05,3.5071871089816005e-05,0.0002955828314268423,-0.006648841001599554,0.002758638498864936,-0.0015052354079137633,,,
-4.942218288725435e-05,3.466902676473284e-05,0.00011171227730581684,-0.0025019353627287167,0.0001962994127366854,0.0009606221059435885,,,
-3.978503871688824e-06,3.7000401527840374e-05,6.237209208856382e-05,0.001867760028600181,-0.0006245196802769513,-0.0018953130712074627,,,
-1.1762870029729317e-05,2.657894469135887e-05,5.229077317849055e-06,0.0008191190383438013,-0.00040879543443094087,-0.0015384889268674382,,,
2.2671183406069263e-05,-2.0003781778184416e-06,-1.2876302628139603e-05,0.002810602130191926,-0.0005560472426526245,-0.003982427060762306,,,
-8.810928443485505e-06,3.9242927819848594e-05,-9.866600576755095e-05,0.0028089290619045765,-0.00047746208075193054,-0.0020971408395302547,,,
3.6507766960667593e-06,2.5240471982621096e-05,1.681841147773661e-05,0.002429612448839074,-0.0004599139378032335,0.00034217661256231036,,,
-4.3597870679990795e-06,2.9773857844782888e-05,-1.743900048250974e-05,0.0034097369869640366,-0.0004599139378032335,0.003685866259824845,,,
3.753466307824148e-05,2.9773857844782888e-05,-7.495741537602673e-05,0.007699514755699275,-0.00027322703295016486,0.001582265341208303,,,
3.24728038464424e-05,2.9773857844782888e-05,2.6325325533337445e-05,0.0031113741515975094,-0.0004110843226416408,-0.0003692455564725513,,,
3.176450655253502e-05,2.9773857844782888e-05,8.266378462396297e-05,0.0016862632489635185,-0.001402783288064162,-0.0015593365343113238,,,
8.102012160972864e-05,2.7988465200222372e-05,0.00020104524321841813,-0.0016826240420157689,0.0004867278393234428,-0.0034237952818384023,,,
9.64443029935849e-06,3.470357602074332e-05,6.902088570712911e-05,0.0019476357865590584,-0.0025672122977636754,-0.006164538134483803,,,
4.5443410986284974e-05,1.88284194363881e-05,1.1462830411850096e-05,0.002661430388874098,-0.003634050205295605,-0.003487854807017332,,,
3.425471487851546e-06,6.340331996721211e-05,-3.348590222287443e-05,0.006749931333353634,-0.005721535816600905,-0.0022316660054322594,,,
1.7543783161630783e-05,3.670359406313266e-05,-7.03739634988942e-05,0.0029268829131074503,-0.01069154390933267,-0.000552465333382581,,,
-2.465704824976338e-05,2.559450582640438e-05,-0.00020056194748769554,0.0004673930629337769,-0.004529099398785306,0.0012661895947068537,,,
-6.217298569359643e-05,-9.720456681467258e-06,-7.337031159386598e-05,-0.0028509489869241247,-0.0007540005376274007,-0.003004590994629275,,,
-2.6605097530113153e-05,-7.438021469298139e-05,-5.738043200112814e-05,-0.00831186767017777,0.0031446447925116672,-0.0012999765091472506,,,
-3.0631009079555425e-05,-3.8287650031171245e-05,-2.09798967210726e-05,-0.0020771375824511517,0.001033669642156952,0.00013346067875012881,,,
-6.06144549746291e-06,-2.2040647064208898e-05,1.2074172448047805e-05,-0.004887955454073717,0.00019619880226589054,-0.0018566593207587274,,,
-1.7519972016873996e-05,4.200703282096544e-06,6.432735474692965e-05,-0.0013936636393501705,-0.001524088711655407,0.0013400009918515207,,,
-2.389965514084252e-05,4.002995509083845e-05,2.2301182810316217e-05,0.0015976310394965995,-0.004701382638570223,0.002406180299055547,,,
-2.346018860438816e-05,8.514025384301443e-05,-2.0777881064027967e-05,0.0001598236121252285,-0.0017811252892525806,0.0031740417655144,,,
-2.965745153006677e-05,3.7660751693662795e-05,3.485370287345198e-05,0.001513093827770148,0.0002184847837486172,0.0008627910880274388,,,
-2.365483685463031e-05,-4.63087862788783e-06,2.038336250945495e-05,0.003957789722383267,0.0033665730765709244,0.004211592841159113,,,
-3.686635944700315e-05,-4.653603179559167e-05,5.8309851035862706e-05,0.0006948570925913192,0.0027299956396156645,0.011088326413427626,,,
1.807150291971283e-05,-4.159062471388895e-05,0.00013822644193203256,-0.0006918588485026903,0.006993422203635742,0.0032576316443968696,,,
5.172774324664815e-05,-4.2909024323252016e-05,3.383892330707208e-05,-0.003957648049048921,0.003091588590146558,0.003677879616545517,,,
5.3294530680025885e-05,-2.8597251925600394e-05,3.785930095182733e-05,0.0013986427479805027,9.406133741681547e-05,0.0006170541277822566,,,
7.709738456372808e-05,-4.349497970519117e-05,1.4195564666268257e-05,0.006096747456093167,0.0020076360523183156,-0.0027172989852307294,,,
3.712873935964298e-05,-8.69786239639878e-05,-3.6065956476741886e-05,0.0026349142519643608,-0.00028278529133045794,0.0006394917249706219,,,
-3.363817933341667e-07,-6.115430577272294e-05,-4.449277432799442e-07,0.002783640200858706,-0.002879076805243636,-0.0009945007341396574,,,
-3.6245160108960665e-05,-6.272164067506608e-05,-3.0292053289646015e-05,0.0015321399283503843,-0.00023825245465921227,0.0018893571219462761,,,
-7.409748774535633e-05,-4.223582190833887e-05,-9.648363190598831e-05,0.0031537012472036474,-0.004520364828218601,-0.001908457074357247,,,
-2.0045299365956285e-05,-8.53471916431544e-06,3.475780788334736e-05,0.0008197034608286467,-0.0008943618749215644,0.0021592836314964854,,,
1.894047415253987e-05,3.026858274750505e-05,-3.197386089654292e-05,-0.0033949033340253906,0.0024322803250759546,-0.0006287731333127392,,,
